success,trial_type,trial_index,time_elapsed,internal_node_id,run_id,condition,recorded_at,source_code_version,ip,user_agent,device,browser,browser_version,platform,platform_version,subjectId,cond,bal,view_history,rt,stimulus,key_press,accuracy,recall,stimuli,set_size
true,fullscreen,0,1031512,0.0-0.0,1,1,2022-05-10 07:53:40,c659a6312084527fc8e3c63841c4439b,,"Mozilla/5.0 (Windows NT 10.0; Win64; x64) AppleWebKit/537.36 (KHTML, like Gecko) Chrome/101.0.4951.54 Safari/537.36 Edg/101.0.1210.39",WebKit,Edge,101.0.1210.39,Windows,10.0,7,1,a,,,,,,,,
,instructions,1,1035745,0.0-1.0,1,1,2022-05-10 07:53:40,c659a6312084527fc8e3c63841c4439b,,"Mozilla/5.0 (Windows NT 10.0; Win64; x64) AppleWebKit/537.36 (KHTML, like Gecko) Chrome/101.0.4951.54 Safari/537.36 Edg/101.0.1210.39",WebKit,Edge,101.0.1210.39,Windows,10.0,7,1,a,"[{""page_index"":0,""viewing_time"":4229}]",4230,,,,,,
,html-keyboard-response,2,1036753,0.0-2.0-0.0-0.0,1,1,2022-05-10 07:53:40,c659a6312084527fc8e3c63841c4439b,,"Mozilla/5.0 (Windows NT 10.0; Win64; x64) AppleWebKit/537.36 (KHTML, like Gecko) Chrome/101.0.4951.54 Safari/537.36 Edg/101.0.1210.39",WebKit,Edge,101.0.1210.39,Windows,10.0,7,1,a,,null,"<div style=""font-size:70px;"">F<br><br><br><br></div>",null,,,,
,html-button-operationspan,3,1039104,0.0-2.0-0.0-1.0,1,1,2022-05-10 07:53:40,c659a6312084527fc8e3c63841c4439b,,"Mozilla/5.0 (Windows NT 10.0; Win64; x64) AppleWebKit/537.36 (KHTML, like Gecko) Chrome/101.0.4951.54 Safari/537.36 Edg/101.0.1210.39",WebKit,Edge,101.0.1210.39,Windows,10.0,7,1,a,,2349,"<div style=""font-size:46px;"">1 + 5 = 8<br><br><br><br></div>",,1,,,
,html-keyboard-response,4,1039107,0.0-2.0-0.0-2.0,1,1,2022-05-10 07:53:40,c659a6312084527fc8e3c63841c4439b,,"Mozilla/5.0 (Windows NT 10.0; Win64; x64) AppleWebKit/537.36 (KHTML, like Gecko) Chrome/101.0.4951.54 Safari/537.36 Edg/101.0.1210.39",WebKit,Edge,101.0.1210.39,Windows,10.0,7,1,a,,null, ,null,,,,
,html-keyboard-response,5,1040121,0.0-2.0-0.0-0.1,1,1,2022-05-10 07:53:40,c659a6312084527fc8e3c63841c4439b,,"Mozilla/5.0 (Windows NT 10.0; Win64; x64) AppleWebKit/537.36 (KHTML, like Gecko) Chrome/101.0.4951.54 Safari/537.36 Edg/101.0.1210.39",WebKit,Edge,101.0.1210.39,Windows,10.0,7,1,a,,null,"<div style=""font-size:70px;"">K<br><br><br><br></div>",null,,,,
,html-button-operationspan,6,1041864,0.0-2.0-0.0-1.1,1,1,2022-05-10 07:53:40,c659a6312084527fc8e3c63841c4439b,,"Mozilla/5.0 (Windows NT 10.0; Win64; x64) AppleWebKit/537.36 (KHTML, like Gecko) Chrome/101.0.4951.54 Safari/537.36 Edg/101.0.1210.39",WebKit,Edge,101.0.1210.39,Windows,10.0,7,1,a,,1741,"<div style=""font-size:46px;"">6 - 3 = 3<br><br><br><br></div>",,1,,,
,html-keyboard-response,7,1041867,0.0-2.0-0.0-2.1,1,1,2022-05-10 07:53:40,c659a6312084527fc8e3c63841c4439b,,"Mozilla/5.0 (Windows NT 10.0; Win64; x64) AppleWebKit/537.36 (KHTML, like Gecko) Chrome/101.0.4951.54 Safari/537.36 Edg/101.0.1210.39",WebKit,Edge,101.0.1210.39,Windows,10.0,7,1,a,,null, ,null,,,,
,html-keyboard-response,8,1042870,0.0-2.0-0.0-0.2,1,1,2022-05-10 07:53:40,c659a6312084527fc8e3c63841c4439b,,"Mozilla/5.0 (Windows NT 10.0; Win64; x64) AppleWebKit/537.36 (KHTML, like Gecko) Chrome/101.0.4951.54 Safari/537.36 Edg/101.0.1210.39",WebKit,Edge,101.0.1210.39,Windows,10.0,7,1,a,,null,"<div style=""font-size:70px;"">R<br><br><br><br></div>",null,,,,
,html-button-operationspan,9,1045577,0.0-2.0-0.0-1.2,1,1,2022-05-10 07:53:40,c659a6312084527fc8e3c63841c4439b,,"Mozilla/5.0 (Windows NT 10.0; Win64; x64) AppleWebKit/537.36 (KHTML, like Gecko) Chrome/101.0.4951.54 Safari/537.36 Edg/101.0.1210.39",WebKit,Edge,101.0.1210.39,Windows,10.0,7,1,a,,2706,"<div style=""font-size:46px;"">6 - 5 = 1<br><br><br><br></div>",,1,,,
,html-keyboard-response,10,1045579,0.0-2.0-0.0-2.2,1,1,2022-05-10 07:53:40,c659a6312084527fc8e3c63841c4439b,,"Mozilla/5.0 (Windows NT 10.0; Win64; x64) AppleWebKit/537.36 (KHTML, like Gecko) Chrome/101.0.4951.54 Safari/537.36 Edg/101.0.1210.39",WebKit,Edge,101.0.1210.39,Windows,10.0,7,1,a,,null, ,null,,,,
,html-keyboard-response,11,1046594,0.0-2.0-0.0-0.3,1,1,2022-05-10 07:53:40,c659a6312084527fc8e3c63841c4439b,,"Mozilla/5.0 (Windows NT 10.0; Win64; x64) AppleWebKit/537.36 (KHTML, like Gecko) Chrome/101.0.4951.54 Safari/537.36 Edg/101.0.1210.39",WebKit,Edge,101.0.1210.39,Windows,10.0,7,1,a,,null,"<div style=""font-size:70px;"">Q<br><br><br><br></div>",null,,,,
,html-button-operationspan,12,1051016,0.0-2.0-0.0-1.3,1,1,2022-05-10 07:53:40,c659a6312084527fc8e3c63841c4439b,,"Mozilla/5.0 (Windows NT 10.0; Win64; x64) AppleWebKit/537.36 (KHTML, like Gecko) Chrome/101.0.4951.54 Safari/537.36 Edg/101.0.1210.39",WebKit,Edge,101.0.1210.39,Windows,10.0,7,1,a,,4420,"<div style=""font-size:46px;"">3 - 2 = 3<br><br><br><br></div>",,1,,,
,html-keyboard-response,13,1051019,0.0-2.0-0.0-2.3,1,1,2022-05-10 07:53:40,c659a6312084527fc8e3c63841c4439b,,"Mozilla/5.0 (Windows NT 10.0; Win64; x64) AppleWebKit/537.36 (KHTML, like Gecko) Chrome/101.0.4951.54 Safari/537.36 Edg/101.0.1210.39",WebKit,Edge,101.0.1210.39,Windows,10.0,7,1,a,,null, ,null,,,,
,html-keyboard-response,14,1052034,0.0-2.0-0.0-0.4,1,1,2022-05-10 07:53:40,c659a6312084527fc8e3c63841c4439b,,"Mozilla/5.0 (Windows NT 10.0; Win64; x64) AppleWebKit/537.36 (KHTML, like Gecko) Chrome/101.0.4951.54 Safari/537.36 Edg/101.0.1210.39",WebKit,Edge,101.0.1210.39,Windows,10.0,7,1,a,,null,"<div style=""font-size:70px;"">H<br><br><br><br></div>",null,,,,
,html-button-operationspan,15,1054544,0.0-2.0-0.0-1.4,1,1,2022-05-10 07:53:40,c659a6312084527fc8e3c63841c4439b,,"Mozilla/5.0 (Windows NT 10.0; Win64; x64) AppleWebKit/537.36 (KHTML, like Gecko) Chrome/101.0.4951.54 Safari/537.36 Edg/101.0.1210.39",WebKit,Edge,101.0.1210.39,Windows,10.0,7,1,a,,2509,"<div style=""font-size:46px;"">2 + 7 = 8<br><br><br><br></div>",,1,,,
,html-keyboard-response,16,1054547,0.0-2.0-0.0-2.4,1,1,2022-05-10 07:53:40,c659a6312084527fc8e3c63841c4439b,,"Mozilla/5.0 (Windows NT 10.0; Win64; x64) AppleWebKit/537.36 (KHTML, like Gecko) Chrome/101.0.4951.54 Safari/537.36 Edg/101.0.1210.39",WebKit,Edge,101.0.1210.39,Windows,10.0,7,1,a,,null, ,null,,,,
,operation-span-recall,17,1068288,0.0-2.0-1.0,1,1,2022-05-10 07:53:40,c659a6312084527fc8e3c63841c4439b,,"Mozilla/5.0 (Windows NT 10.0; Win64; x64) AppleWebKit/537.36 (KHTML, like Gecko) Chrome/101.0.4951.54 Safari/537.36 Edg/101.0.1210.39",WebKit,Edge,101.0.1210.39,Windows,10.0,7,1,a,,13738,,,4,"F,K,R,Q,S","F,K,R,Q,H",5
,instructions,18,1069776,0.0-2.0-2.0,1,1,2022-05-10 07:53:40,c659a6312084527fc8e3c63841c4439b,,"Mozilla/5.0 (Windows NT 10.0; Win64; x64) AppleWebKit/537.36 (KHTML, like Gecko) Chrome/101.0.4951.54 Safari/537.36 Edg/101.0.1210.39",WebKit,Edge,101.0.1210.39,Windows,10.0,7,1,a,"[{""page_index"":0,""viewing_time"":1487}]",1487,,,,,,
,html-keyboard-response,19,1070783,0.0-2.0-0.1-0.5,1,1,2022-05-10 07:53:40,c659a6312084527fc8e3c63841c4439b,,"Mozilla/5.0 (Windows NT 10.0; Win64; x64) AppleWebKit/537.36 (KHTML, like Gecko) Chrome/101.0.4951.54 Safari/537.36 Edg/101.0.1210.39",WebKit,Edge,101.0.1210.39,Windows,10.0,7,1,a,,null,"<div style=""font-size:70px;"">F<br><br><br><br></div>",null,,,,
,html-button-operationspan,20,1072968,0.0-2.0-0.1-1.5,1,1,2022-05-10 07:53:40,c659a6312084527fc8e3c63841c4439b,,"Mozilla/5.0 (Windows NT 10.0; Win64; x64) AppleWebKit/537.36 (KHTML, like Gecko) Chrome/101.0.4951.54 Safari/537.36 Edg/101.0.1210.39",WebKit,Edge,101.0.1210.39,Windows,10.0,7,1,a,,2183,"<div style=""font-size:46px;"">4 + 9 = 15<br><br><br><br></div>",,1,,,
,html-keyboard-response,21,1072970,0.0-2.0-0.1-2.5,1,1,2022-05-10 07:53:40,c659a6312084527fc8e3c63841c4439b,,"Mozilla/5.0 (Windows NT 10.0; Win64; x64) AppleWebKit/537.36 (KHTML, like Gecko) Chrome/101.0.4951.54 Safari/537.36 Edg/101.0.1210.39",WebKit,Edge,101.0.1210.39,Windows,10.0,7,1,a,,null, ,null,,,,
,html-keyboard-response,22,1073981,0.0-2.0-0.1-0.6,1,1,2022-05-10 07:53:40,c659a6312084527fc8e3c63841c4439b,,"Mozilla/5.0 (Windows NT 10.0; Win64; x64) AppleWebKit/537.36 (KHTML, like Gecko) Chrome/101.0.4951.54 Safari/537.36 Edg/101.0.1210.39",WebKit,Edge,101.0.1210.39,Windows,10.0,7,1,a,,null,"<div style=""font-size:70px;"">Q<br><br><br><br></div>",null,,,,
,html-button-operationspan,23,1076024,0.0-2.0-0.1-1.6,1,1,2022-05-10 07:53:40,c659a6312084527fc8e3c63841c4439b,,"Mozilla/5.0 (Windows NT 10.0; Win64; x64) AppleWebKit/537.36 (KHTML, like Gecko) Chrome/101.0.4951.54 Safari/537.36 Edg/101.0.1210.39",WebKit,Edge,101.0.1210.39,Windows,10.0,7,1,a,,2041,"<div style=""font-size:46px;"">7 + 7 = 14<br><br><br><br></div>",,1,,,
,html-keyboard-response,24,1076028,0.0-2.0-0.1-2.6,1,1,2022-05-10 07:53:40,c659a6312084527fc8e3c63841c4439b,,"Mozilla/5.0 (Windows NT 10.0; Win64; x64) AppleWebKit/537.36 (KHTML, like Gecko) Chrome/101.0.4951.54 Safari/537.36 Edg/101.0.1210.39",WebKit,Edge,101.0.1210.39,Windows,10.0,7,1,a,,null, ,null,,,,
,html-keyboard-response,25,1077043,0.0-2.0-0.1-0.7,1,1,2022-05-10 07:53:40,c659a6312084527fc8e3c63841c4439b,,"Mozilla/5.0 (Windows NT 10.0; Win64; x64) AppleWebKit/537.36 (KHTML, like Gecko) Chrome/101.0.4951.54 Safari/537.36 Edg/101.0.1210.39",WebKit,Edge,101.0.1210.39,Windows,10.0,7,1,a,,null,"<div style=""font-size:70px;"">R<br><br><br><br></div>",null,,,,
,html-button-operationspan,26,1080168,0.0-2.0-0.1-1.7,1,1,2022-05-10 07:53:40,c659a6312084527fc8e3c63841c4439b,,"Mozilla/5.0 (Windows NT 10.0; Win64; x64) AppleWebKit/537.36 (KHTML, like Gecko) Chrome/101.0.4951.54 Safari/537.36 Edg/101.0.1210.39",WebKit,Edge,101.0.1210.39,Windows,10.0,7,1,a,,3122,"<div style=""font-size:46px;"">8 - 4 = 4<br><br><br><br></div>",,1,,,
,html-keyboard-response,27,1080170,0.0-2.0-0.1-2.7,1,1,2022-05-10 07:53:40,c659a6312084527fc8e3c63841c4439b,,"Mozilla/5.0 (Windows NT 10.0; Win64; x64) AppleWebKit/537.36 (KHTML, like Gecko) Chrome/101.0.4951.54 Safari/537.36 Edg/101.0.1210.39",WebKit,Edge,101.0.1210.39,Windows,10.0,7,1,a,,null, ,null,,,,
,html-keyboard-response,28,1081176,0.0-2.0-0.1-0.8,1,1,2022-05-10 07:53:40,c659a6312084527fc8e3c63841c4439b,,"Mozilla/5.0 (Windows NT 10.0; Win64; x64) AppleWebKit/537.36 (KHTML, like Gecko) Chrome/101.0.4951.54 Safari/537.36 Edg/101.0.1210.39",WebKit,Edge,101.0.1210.39,Windows,10.0,7,1,a,,null,"<div style=""font-size:70px;"">T<br><br><br><br></div>",null,,,,
,html-button-operationspan,29,1082768,0.0-2.0-0.1-1.8,1,1,2022-05-10 07:53:40,c659a6312084527fc8e3c63841c4439b,,"Mozilla/5.0 (Windows NT 10.0; Win64; x64) AppleWebKit/537.36 (KHTML, like Gecko) Chrome/101.0.4951.54 Safari/537.36 Edg/101.0.1210.39",WebKit,Edge,101.0.1210.39,Windows,10.0,7,1,a,,1590,"<div style=""font-size:46px;"">7 - 5 = 2<br><br><br><br></div>",,1,,,
,html-keyboard-response,30,1082770,0.0-2.0-0.1-2.8,1,1,2022-05-10 07:53:40,c659a6312084527fc8e3c63841c4439b,,"Mozilla/5.0 (Windows NT 10.0; Win64; x64) AppleWebKit/537.36 (KHTML, like Gecko) Chrome/101.0.4951.54 Safari/537.36 Edg/101.0.1210.39",WebKit,Edge,101.0.1210.39,Windows,10.0,7,1,a,,null, ,null,,,,
,html-keyboard-response,31,1083781,0.0-2.0-0.1-0.9,1,1,2022-05-10 07:53:40,c659a6312084527fc8e3c63841c4439b,,"Mozilla/5.0 (Windows NT 10.0; Win64; x64) AppleWebKit/537.36 (KHTML, like Gecko) Chrome/101.0.4951.54 Safari/537.36 Edg/101.0.1210.39",WebKit,Edge,101.0.1210.39,Windows,10.0,7,1,a,,null,"<div style=""font-size:70px;"">J<br><br><br><br></div>",null,,,,
,html-button-operationspan,32,1086088,0.0-2.0-0.1-1.9,1,1,2022-05-10 07:53:40,c659a6312084527fc8e3c63841c4439b,,"Mozilla/5.0 (Windows NT 10.0; Win64; x64) AppleWebKit/537.36 (KHTML, like Gecko) Chrome/101.0.4951.54 Safari/537.36 Edg/101.0.1210.39",WebKit,Edge,101.0.1210.39,Windows,10.0,7,1,a,,2305,"<div style=""font-size:46px;"">7 - 2 = 4<br><br><br><br></div>",,1,,,
,html-keyboard-response,33,1086091,0.0-2.0-0.1-2.9,1,1,2022-05-10 07:53:40,c659a6312084527fc8e3c63841c4439b,,"Mozilla/5.0 (Windows NT 10.0; Win64; x64) AppleWebKit/537.36 (KHTML, like Gecko) Chrome/101.0.4951.54 Safari/537.36 Edg/101.0.1210.39",WebKit,Edge,101.0.1210.39,Windows,10.0,7,1,a,,null, ,null,,,,
,html-keyboard-response,34,1087099,0.0-2.0-0.1-0.10,1,1,2022-05-10 07:53:40,c659a6312084527fc8e3c63841c4439b,,"Mozilla/5.0 (Windows NT 10.0; Win64; x64) AppleWebKit/537.36 (KHTML, like Gecko) Chrome/101.0.4951.54 Safari/537.36 Edg/101.0.1210.39",WebKit,Edge,101.0.1210.39,Windows,10.0,7,1,a,,null,"<div style=""font-size:70px;"">L<br><br><br><br></div>",null,,,,
,html-button-operationspan,35,1089856,0.0-2.0-0.1-1.10,1,1,2022-05-10 07:53:40,c659a6312084527fc8e3c63841c4439b,,"Mozilla/5.0 (Windows NT 10.0; Win64; x64) AppleWebKit/537.36 (KHTML, like Gecko) Chrome/101.0.4951.54 Safari/537.36 Edg/101.0.1210.39",WebKit,Edge,101.0.1210.39,Windows,10.0,7,1,a,,2754,"<div style=""font-size:46px;"">8 - 4 = 4<br><br><br><br></div>",,1,,,
,html-keyboard-response,36,1089859,0.0-2.0-0.1-2.10,1,1,2022-05-10 07:53:40,c659a6312084527fc8e3c63841c4439b,,"Mozilla/5.0 (Windows NT 10.0; Win64; x64) AppleWebKit/537.36 (KHTML, like Gecko) Chrome/101.0.4951.54 Safari/537.36 Edg/101.0.1210.39",WebKit,Edge,101.0.1210.39,Windows,10.0,7,1,a,,null, ,null,,,,
,operation-span-recall,37,1100904,0.0-2.0-1.1,1,1,2022-05-10 07:53:40,c659a6312084527fc8e3c63841c4439b,,"Mozilla/5.0 (Windows NT 10.0; Win64; x64) AppleWebKit/537.36 (KHTML, like Gecko) Chrome/101.0.4951.54 Safari/537.36 Edg/101.0.1210.39",WebKit,Edge,101.0.1210.39,Windows,10.0,7,1,a,,11040,,,6,"F,Q,R,T,J,L","F,Q,R,T,J,L",6
,instructions,38,1102440,0.0-2.0-2.1,1,1,2022-05-10 07:53:40,c659a6312084527fc8e3c63841c4439b,,"Mozilla/5.0 (Windows NT 10.0; Win64; x64) AppleWebKit/537.36 (KHTML, like Gecko) Chrome/101.0.4951.54 Safari/537.36 Edg/101.0.1210.39",WebKit,Edge,101.0.1210.39,Windows,10.0,7,1,a,"[{""page_index"":0,""viewing_time"":1535}]",1535,,,,,,
,html-keyboard-response,39,1103443,0.0-2.0-0.2-0.11,1,1,2022-05-10 07:53:40,c659a6312084527fc8e3c63841c4439b,,"Mozilla/5.0 (Windows NT 10.0; Win64; x64) AppleWebKit/537.36 (KHTML, like Gecko) Chrome/101.0.4951.54 Safari/537.36 Edg/101.0.1210.39",WebKit,Edge,101.0.1210.39,Windows,10.0,7,1,a,,null,"<div style=""font-size:70px;"">F<br><br><br><br></div>",null,,,,
,html-button-operationspan,40,1105648,0.0-2.0-0.2-1.11,1,1,2022-05-10 07:53:40,c659a6312084527fc8e3c63841c4439b,,"Mozilla/5.0 (Windows NT 10.0; Win64; x64) AppleWebKit/537.36 (KHTML, like Gecko) Chrome/101.0.4951.54 Safari/537.36 Edg/101.0.1210.39",WebKit,Edge,101.0.1210.39,Windows,10.0,7,1,a,,2203,"<div style=""font-size:46px;"">1 - 1 = 0<br><br><br><br></div>",,1,,,
,html-keyboard-response,41,1105651,0.0-2.0-0.2-2.11,1,1,2022-05-10 07:53:40,c659a6312084527fc8e3c63841c4439b,,"Mozilla/5.0 (Windows NT 10.0; Win64; x64) AppleWebKit/537.36 (KHTML, like Gecko) Chrome/101.0.4951.54 Safari/537.36 Edg/101.0.1210.39",WebKit,Edge,101.0.1210.39,Windows,10.0,7,1,a,,null, ,null,,,,
,html-keyboard-response,42,1106668,0.0-2.0-0.2-0.12,1,1,2022-05-10 07:53:40,c659a6312084527fc8e3c63841c4439b,,"Mozilla/5.0 (Windows NT 10.0; Win64; x64) AppleWebKit/537.36 (KHTML, like Gecko) Chrome/101.0.4951.54 Safari/537.36 Edg/101.0.1210.39",WebKit,Edge,101.0.1210.39,Windows,10.0,7,1,a,,null,"<div style=""font-size:70px;"">H<br><br><br><br></div>",null,,,,
,html-button-operationspan,43,1110416,0.0-2.0-0.2-1.12,1,1,2022-05-10 07:53:40,c659a6312084527fc8e3c63841c4439b,,"Mozilla/5.0 (Windows NT 10.0; Win64; x64) AppleWebKit/537.36 (KHTML, like Gecko) Chrome/101.0.4951.54 Safari/537.36 Edg/101.0.1210.39",WebKit,Edge,101.0.1210.39,Windows,10.0,7,1,a,,3747,"<div style=""font-size:46px;"">3 + 9 = 11<br><br><br><br></div>",,1,,,
,html-keyboard-response,44,1110419,0.0-2.0-0.2-2.12,1,1,2022-05-10 07:53:40,c659a6312084527fc8e3c63841c4439b,,"Mozilla/5.0 (Windows NT 10.0; Win64; x64) AppleWebKit/537.36 (KHTML, like Gecko) Chrome/101.0.4951.54 Safari/537.36 Edg/101.0.1210.39",WebKit,Edge,101.0.1210.39,Windows,10.0,7,1,a,,null, ,null,,,,
,html-keyboard-response,45,1111436,0.0-2.0-0.2-0.13,1,1,2022-05-10 07:53:40,c659a6312084527fc8e3c63841c4439b,,"Mozilla/5.0 (Windows NT 10.0; Win64; x64) AppleWebKit/537.36 (KHTML, like Gecko) Chrome/101.0.4951.54 Safari/537.36 Edg/101.0.1210.39",WebKit,Edge,101.0.1210.39,Windows,10.0,7,1,a,,null,"<div style=""font-size:70px;"">S<br><br><br><br></div>",null,,,,
,html-button-operationspan,46,1114552,0.0-2.0-0.2-1.13,1,1,2022-05-10 07:53:40,c659a6312084527fc8e3c63841c4439b,,"Mozilla/5.0 (Windows NT 10.0; Win64; x64) AppleWebKit/537.36 (KHTML, like Gecko) Chrome/101.0.4951.54 Safari/537.36 Edg/101.0.1210.39",WebKit,Edge,101.0.1210.39,Windows,10.0,7,1,a,,3114,"<div style=""font-size:46px;"">2 + 9 = 11<br><br><br><br></div>",,1,,,
,html-keyboard-response,47,1114555,0.0-2.0-0.2-2.13,1,1,2022-05-10 07:53:40,c659a6312084527fc8e3c63841c4439b,,"Mozilla/5.0 (Windows NT 10.0; Win64; x64) AppleWebKit/537.36 (KHTML, like Gecko) Chrome/101.0.4951.54 Safari/537.36 Edg/101.0.1210.39",WebKit,Edge,101.0.1210.39,Windows,10.0,7,1,a,,null, ,null,,,,
,html-keyboard-response,48,1115572,0.0-2.0-0.2-0.14,1,1,2022-05-10 07:53:40,c659a6312084527fc8e3c63841c4439b,,"Mozilla/5.0 (Windows NT 10.0; Win64; x64) AppleWebKit/537.36 (KHTML, like Gecko) Chrome/101.0.4951.54 Safari/537.36 Edg/101.0.1210.39",WebKit,Edge,101.0.1210.39,Windows,10.0,7,1,a,,null,"<div style=""font-size:70px;"">T<br><br><br><br></div>",null,,,,
,html-button-operationspan,49,1117873,0.0-2.0-0.2-1.14,1,1,2022-05-10 07:53:40,c659a6312084527fc8e3c63841c4439b,,"Mozilla/5.0 (Windows NT 10.0; Win64; x64) AppleWebKit/537.36 (KHTML, like Gecko) Chrome/101.0.4951.54 Safari/537.36 Edg/101.0.1210.39",WebKit,Edge,101.0.1210.39,Windows,10.0,7,1,a,,2297,"<div style=""font-size:46px;"">9 + 2 = 11<br><br><br><br></div>",,1,,,
,html-keyboard-response,50,1117877,0.0-2.0-0.2-2.14,1,1,2022-05-10 07:53:40,c659a6312084527fc8e3c63841c4439b,,"Mozilla/5.0 (Windows NT 10.0; Win64; x64) AppleWebKit/537.36 (KHTML, like Gecko) Chrome/101.0.4951.54 Safari/537.36 Edg/101.0.1210.39",WebKit,Edge,101.0.1210.39,Windows,10.0,7,1,a,,null, ,null,,,,
,html-keyboard-response,51,1118892,0.0-2.0-0.2-0.15,1,1,2022-05-10 07:53:40,c659a6312084527fc8e3c63841c4439b,,"Mozilla/5.0 (Windows NT 10.0; Win64; x64) AppleWebKit/537.36 (KHTML, like Gecko) Chrome/101.0.4951.54 Safari/537.36 Edg/101.0.1210.39",WebKit,Edge,101.0.1210.39,Windows,10.0,7,1,a,,null,"<div style=""font-size:70px;"">N<br><br><br><br></div>",null,,,,
,html-button-operationspan,52,1120994,0.0-2.0-0.2-1.15,1,1,2022-05-10 07:53:40,c659a6312084527fc8e3c63841c4439b,,"Mozilla/5.0 (Windows NT 10.0; Win64; x64) AppleWebKit/537.36 (KHTML, like Gecko) Chrome/101.0.4951.54 Safari/537.36 Edg/101.0.1210.39",WebKit,Edge,101.0.1210.39,Windows,10.0,7,1,a,,2099,"<div style=""font-size:46px;"">8 - 2 = 7<br><br><br><br></div>",,1,,,
,html-keyboard-response,53,1120998,0.0-2.0-0.2-2.15,1,1,2022-05-10 07:53:40,c659a6312084527fc8e3c63841c4439b,,"Mozilla/5.0 (Windows NT 10.0; Win64; x64) AppleWebKit/537.36 (KHTML, like Gecko) Chrome/101.0.4951.54 Safari/537.36 Edg/101.0.1210.39",WebKit,Edge,101.0.1210.39,Windows,10.0,7,1,a,,null, ,null,,,,
,html-keyboard-response,54,1122001,0.0-2.0-0.2-0.16,1,1,2022-05-10 07:53:40,c659a6312084527fc8e3c63841c4439b,,"Mozilla/5.0 (Windows NT 10.0; Win64; x64) AppleWebKit/537.36 (KHTML, like Gecko) Chrome/101.0.4951.54 Safari/537.36 Edg/101.0.1210.39",WebKit,Edge,101.0.1210.39,Windows,10.0,7,1,a,,null,"<div style=""font-size:70px;"">K<br><br><br><br></div>",null,,,,
,html-button-operationspan,55,1124552,0.0-2.0-0.2-1.16,1,1,2022-05-10 07:53:40,c659a6312084527fc8e3c63841c4439b,,"Mozilla/5.0 (Windows NT 10.0; Win64; x64) AppleWebKit/537.36 (KHTML, like Gecko) Chrome/101.0.4951.54 Safari/537.36 Edg/101.0.1210.39",WebKit,Edge,101.0.1210.39,Windows,10.0,7,1,a,,2550,"<div style=""font-size:46px;"">8 + 9 = 19<br><br><br><br></div>",,1,,,
,html-keyboard-response,56,1124556,0.0-2.0-0.2-2.16,1,1,2022-05-10 07:53:40,c659a6312084527fc8e3c63841c4439b,,"Mozilla/5.0 (Windows NT 10.0; Win64; x64) AppleWebKit/537.36 (KHTML, like Gecko) Chrome/101.0.4951.54 Safari/537.36 Edg/101.0.1210.39",WebKit,Edge,101.0.1210.39,Windows,10.0,7,1,a,,null, ,null,,,,
,operation-span-recall,57,1134809,0.0-2.0-1.2,1,1,2022-05-10 07:53:40,c659a6312084527fc8e3c63841c4439b,,"Mozilla/5.0 (Windows NT 10.0; Win64; x64) AppleWebKit/537.36 (KHTML, like Gecko) Chrome/101.0.4951.54 Safari/537.36 Edg/101.0.1210.39",WebKit,Edge,101.0.1210.39,Windows,10.0,7,1,a,,10246,,,2,"F,H,T,S,K","F,H,S,T,N,K",6
,instructions,58,1136320,0.0-2.0-2.2,1,1,2022-05-10 07:53:40,c659a6312084527fc8e3c63841c4439b,,"Mozilla/5.0 (Windows NT 10.0; Win64; x64) AppleWebKit/537.36 (KHTML, like Gecko) Chrome/101.0.4951.54 Safari/537.36 Edg/101.0.1210.39",WebKit,Edge,101.0.1210.39,Windows,10.0,7,1,a,"[{""page_index"":0,""viewing_time"":1509}]",1509,,,,,,
,html-keyboard-response,59,1137337,0.0-2.0-0.3-0.17,1,1,2022-05-10 07:53:40,c659a6312084527fc8e3c63841c4439b,,"Mozilla/5.0 (Windows NT 10.0; Win64; x64) AppleWebKit/537.36 (KHTML, like Gecko) Chrome/101.0.4951.54 Safari/537.36 Edg/101.0.1210.39",WebKit,Edge,101.0.1210.39,Windows,10.0,7,1,a,,null,"<div style=""font-size:70px;"">P<br><br><br><br></div>",null,,,,
,html-button-operationspan,60,1139161,0.0-2.0-0.3-1.17,1,1,2022-05-10 07:53:40,c659a6312084527fc8e3c63841c4439b,,"Mozilla/5.0 (Windows NT 10.0; Win64; x64) AppleWebKit/537.36 (KHTML, like Gecko) Chrome/101.0.4951.54 Safari/537.36 Edg/101.0.1210.39",WebKit,Edge,101.0.1210.39,Windows,10.0,7,1,a,,1822,"<div style=""font-size:46px;"">4 + 4 = 10<br><br><br><br></div>",,1,,,
,html-keyboard-response,61,1139166,0.0-2.0-0.3-2.17,1,1,2022-05-10 07:53:40,c659a6312084527fc8e3c63841c4439b,,"Mozilla/5.0 (Windows NT 10.0; Win64; x64) AppleWebKit/537.36 (KHTML, like Gecko) Chrome/101.0.4951.54 Safari/537.36 Edg/101.0.1210.39",WebKit,Edge,101.0.1210.39,Windows,10.0,7,1,a,,null, ,null,,,,
,html-keyboard-response,62,1140171,0.0-2.0-0.3-0.18,1,1,2022-05-10 07:53:40,c659a6312084527fc8e3c63841c4439b,,"Mozilla/5.0 (Windows NT 10.0; Win64; x64) AppleWebKit/537.36 (KHTML, like Gecko) Chrome/101.0.4951.54 Safari/537.36 Edg/101.0.1210.39",WebKit,Edge,101.0.1210.39,Windows,10.0,7,1,a,,null,"<div style=""font-size:70px;"">N<br><br><br><br></div>",null,,,,
,html-button-operationspan,63,1141936,0.0-2.0-0.3-1.18,1,1,2022-05-10 07:53:40,c659a6312084527fc8e3c63841c4439b,,"Mozilla/5.0 (Windows NT 10.0; Win64; x64) AppleWebKit/537.36 (KHTML, like Gecko) Chrome/101.0.4951.54 Safari/537.36 Edg/101.0.1210.39",WebKit,Edge,101.0.1210.39,Windows,10.0,7,1,a,,1764,"<div style=""font-size:46px;"">2 - 1 = 0<br><br><br><br></div>",,1,,,
,html-keyboard-response,64,1141941,0.0-2.0-0.3-2.18,1,1,2022-05-10 07:53:40,c659a6312084527fc8e3c63841c4439b,,"Mozilla/5.0 (Windows NT 10.0; Win64; x64) AppleWebKit/537.36 (KHTML, like Gecko) Chrome/101.0.4951.54 Safari/537.36 Edg/101.0.1210.39",WebKit,Edge,101.0.1210.39,Windows,10.0,7,1,a,,null, ,null,,,,
,html-keyboard-response,65,1142945,0.0-2.0-0.3-0.19,1,1,2022-05-10 07:53:40,c659a6312084527fc8e3c63841c4439b,,"Mozilla/5.0 (Windows NT 10.0; Win64; x64) AppleWebKit/537.36 (KHTML, like Gecko) Chrome/101.0.4951.54 Safari/537.36 Edg/101.0.1210.39",WebKit,Edge,101.0.1210.39,Windows,10.0,7,1,a,,null,"<div style=""font-size:70px;"">T<br><br><br><br></div>",null,,,,
,html-button-operationspan,66,1146377,0.0-2.0-0.3-1.19,1,1,2022-05-10 07:53:40,c659a6312084527fc8e3c63841c4439b,,"Mozilla/5.0 (Windows NT 10.0; Win64; x64) AppleWebKit/537.36 (KHTML, like Gecko) Chrome/101.0.4951.54 Safari/537.36 Edg/101.0.1210.39",WebKit,Edge,101.0.1210.39,Windows,10.0,7,1,a,,3430,"<div style=""font-size:46px;"">8 + 6 = 14<br><br><br><br></div>",,1,,,
,html-keyboard-response,67,1146381,0.0-2.0-0.3-2.19,1,1,2022-05-10 07:53:40,c659a6312084527fc8e3c63841c4439b,,"Mozilla/5.0 (Windows NT 10.0; Win64; x64) AppleWebKit/537.36 (KHTML, like Gecko) Chrome/101.0.4951.54 Safari/537.36 Edg/101.0.1210.39",WebKit,Edge,101.0.1210.39,Windows,10.0,7,1,a,,null, ,null,,,,
,html-keyboard-response,68,1147393,0.0-2.0-0.3-0.20,1,1,2022-05-10 07:53:40,c659a6312084527fc8e3c63841c4439b,,"Mozilla/5.0 (Windows NT 10.0; Win64; x64) AppleWebKit/537.36 (KHTML, like Gecko) Chrome/101.0.4951.54 Safari/537.36 Edg/101.0.1210.39",WebKit,Edge,101.0.1210.39,Windows,10.0,7,1,a,,null,"<div style=""font-size:70px;"">L<br><br><br><br></div>",null,,,,
,html-button-operationspan,69,1149072,0.0-2.0-0.3-1.20,1,1,2022-05-10 07:53:40,c659a6312084527fc8e3c63841c4439b,,"Mozilla/5.0 (Windows NT 10.0; Win64; x64) AppleWebKit/537.36 (KHTML, like Gecko) Chrome/101.0.4951.54 Safari/537.36 Edg/101.0.1210.39",WebKit,Edge,101.0.1210.39,Windows,10.0,7,1,a,,1677,"<div style=""font-size:46px;"">2 + 7 = 8<br><br><br><br></div>",,1,,,
,html-keyboard-response,70,1149077,0.0-2.0-0.3-2.20,1,1,2022-05-10 07:53:40,c659a6312084527fc8e3c63841c4439b,,"Mozilla/5.0 (Windows NT 10.0; Win64; x64) AppleWebKit/537.36 (KHTML, like Gecko) Chrome/101.0.4951.54 Safari/537.36 Edg/101.0.1210.39",WebKit,Edge,101.0.1210.39,Windows,10.0,7,1,a,,null, ,null,,,,
,operation-span-recall,71,1159833,0.0-2.0-1.3,1,1,2022-05-10 07:53:40,c659a6312084527fc8e3c63841c4439b,,"Mozilla/5.0 (Windows NT 10.0; Win64; x64) AppleWebKit/537.36 (KHTML, like Gecko) Chrome/101.0.4951.54 Safari/537.36 Edg/101.0.1210.39",WebKit,Edge,101.0.1210.39,Windows,10.0,7,1,a,,10751,,,4,"P,N,T,L","P,N,T,L",4
,instructions,72,1161273,0.0-2.0-2.3,1,1,2022-05-10 07:53:40,c659a6312084527fc8e3c63841c4439b,,"Mozilla/5.0 (Windows NT 10.0; Win64; x64) AppleWebKit/537.36 (KHTML, like Gecko) Chrome/101.0.4951.54 Safari/537.36 Edg/101.0.1210.39",WebKit,Edge,101.0.1210.39,Windows,10.0,7,1,a,"[{""page_index"":0,""viewing_time"":1438}]",1439,,,,,,
,html-keyboard-response,73,1162282,0.0-2.0-0.4-0.21,1,1,2022-05-10 07:53:40,c659a6312084527fc8e3c63841c4439b,,"Mozilla/5.0 (Windows NT 10.0; Win64; x64) AppleWebKit/537.36 (KHTML, like Gecko) Chrome/101.0.4951.54 Safari/537.36 Edg/101.0.1210.39",WebKit,Edge,101.0.1210.39,Windows,10.0,7,1,a,,null,"<div style=""font-size:70px;"">K<br><br><br><br></div>",null,,,,
,html-button-operationspan,74,1164201,0.0-2.0-0.4-1.21,1,1,2022-05-10 07:53:40,c659a6312084527fc8e3c63841c4439b,,"Mozilla/5.0 (Windows NT 10.0; Win64; x64) AppleWebKit/537.36 (KHTML, like Gecko) Chrome/101.0.4951.54 Safari/537.36 Edg/101.0.1210.39",WebKit,Edge,101.0.1210.39,Windows,10.0,7,1,a,,1916,"<div style=""font-size:46px;"">1 + 4 = 4<br><br><br><br></div>",,1,,,
,html-keyboard-response,75,1164204,0.0-2.0-0.4-2.21,1,1,2022-05-10 07:53:40,c659a6312084527fc8e3c63841c4439b,,"Mozilla/5.0 (Windows NT 10.0; Win64; x64) AppleWebKit/537.36 (KHTML, like Gecko) Chrome/101.0.4951.54 Safari/537.36 Edg/101.0.1210.39",WebKit,Edge,101.0.1210.39,Windows,10.0,7,1,a,,null, ,null,,,,
,html-keyboard-response,76,1165213,0.0-2.0-0.4-0.22,1,1,2022-05-10 07:53:40,c659a6312084527fc8e3c63841c4439b,,"Mozilla/5.0 (Windows NT 10.0; Win64; x64) AppleWebKit/537.36 (KHTML, like Gecko) Chrome/101.0.4951.54 Safari/537.36 Edg/101.0.1210.39",WebKit,Edge,101.0.1210.39,Windows,10.0,7,1,a,,null,"<div style=""font-size:70px;"">N<br><br><br><br></div>",null,,,,
,html-button-operationspan,77,1167065,0.0-2.0-0.4-1.22,1,1,2022-05-10 07:53:40,c659a6312084527fc8e3c63841c4439b,,"Mozilla/5.0 (Windows NT 10.0; Win64; x64) AppleWebKit/537.36 (KHTML, like Gecko) Chrome/101.0.4951.54 Safari/537.36 Edg/101.0.1210.39",WebKit,Edge,101.0.1210.39,Windows,10.0,7,1,a,,1849,"<div style=""font-size:46px;"">1 - 1 = 0<br><br><br><br></div>",,1,,,
,html-keyboard-response,78,1167068,0.0-2.0-0.4-2.22,1,1,2022-05-10 07:53:40,c659a6312084527fc8e3c63841c4439b,,"Mozilla/5.0 (Windows NT 10.0; Win64; x64) AppleWebKit/537.36 (KHTML, like Gecko) Chrome/101.0.4951.54 Safari/537.36 Edg/101.0.1210.39",WebKit,Edge,101.0.1210.39,Windows,10.0,7,1,a,,null, ,null,,,,
,html-keyboard-response,79,1168074,0.0-2.0-0.4-0.23,1,1,2022-05-10 07:53:40,c659a6312084527fc8e3c63841c4439b,,"Mozilla/5.0 (Windows NT 10.0; Win64; x64) AppleWebKit/537.36 (KHTML, like Gecko) Chrome/101.0.4951.54 Safari/537.36 Edg/101.0.1210.39",WebKit,Edge,101.0.1210.39,Windows,10.0,7,1,a,,null,"<div style=""font-size:70px;"">H<br><br><br><br></div>",null,,,,
,html-button-operationspan,80,1171217,0.0-2.0-0.4-1.23,1,1,2022-05-10 07:53:40,c659a6312084527fc8e3c63841c4439b,,"Mozilla/5.0 (Windows NT 10.0; Win64; x64) AppleWebKit/537.36 (KHTML, like Gecko) Chrome/101.0.4951.54 Safari/537.36 Edg/101.0.1210.39",WebKit,Edge,101.0.1210.39,Windows,10.0,7,1,a,,3139,"<div style=""font-size:46px;"">9 - 3 = 6<br><br><br><br></div>",,1,,,
,html-keyboard-response,81,1171221,0.0-2.0-0.4-2.23,1,1,2022-05-10 07:53:40,c659a6312084527fc8e3c63841c4439b,,"Mozilla/5.0 (Windows NT 10.0; Win64; x64) AppleWebKit/537.36 (KHTML, like Gecko) Chrome/101.0.4951.54 Safari/537.36 Edg/101.0.1210.39",WebKit,Edge,101.0.1210.39,Windows,10.0,7,1,a,,null, ,null,,,,
,html-keyboard-response,82,1172224,0.0-2.0-0.4-0.24,1,1,2022-05-10 07:53:40,c659a6312084527fc8e3c63841c4439b,,"Mozilla/5.0 (Windows NT 10.0; Win64; x64) AppleWebKit/537.36 (KHTML, like Gecko) Chrome/101.0.4951.54 Safari/537.36 Edg/101.0.1210.39",WebKit,Edge,101.0.1210.39,Windows,10.0,7,1,a,,null,"<div style=""font-size:70px;"">P<br><br><br><br></div>",null,,,,
,html-button-operationspan,83,1175801,0.0-2.0-0.4-1.24,1,1,2022-05-10 07:53:40,c659a6312084527fc8e3c63841c4439b,,"Mozilla/5.0 (Windows NT 10.0; Win64; x64) AppleWebKit/537.36 (KHTML, like Gecko) Chrome/101.0.4951.54 Safari/537.36 Edg/101.0.1210.39",WebKit,Edge,101.0.1210.39,Windows,10.0,7,1,a,,3573,"<div style=""font-size:46px;"">9 + 7 = 16<br><br><br><br></div>",,1,,,
,html-keyboard-response,84,1175805,0.0-2.0-0.4-2.24,1,1,2022-05-10 07:53:40,c659a6312084527fc8e3c63841c4439b,,"Mozilla/5.0 (Windows NT 10.0; Win64; x64) AppleWebKit/537.36 (KHTML, like Gecko) Chrome/101.0.4951.54 Safari/537.36 Edg/101.0.1210.39",WebKit,Edge,101.0.1210.39,Windows,10.0,7,1,a,,null, ,null,,,,
,operation-span-recall,85,1185657,0.0-2.0-1.4,1,1,2022-05-10 07:53:40,c659a6312084527fc8e3c63841c4439b,,"Mozilla/5.0 (Windows NT 10.0; Win64; x64) AppleWebKit/537.36 (KHTML, like Gecko) Chrome/101.0.4951.54 Safari/537.36 Edg/101.0.1210.39",WebKit,Edge,101.0.1210.39,Windows,10.0,7,1,a,,9845,,,2,"K,N,T,H","K,N,H,P",4
,instructions,86,1187105,0.0-2.0-2.4,1,1,2022-05-10 07:53:40,c659a6312084527fc8e3c63841c4439b,,"Mozilla/5.0 (Windows NT 10.0; Win64; x64) AppleWebKit/537.36 (KHTML, like Gecko) Chrome/101.0.4951.54 Safari/537.36 Edg/101.0.1210.39",WebKit,Edge,101.0.1210.39,Windows,10.0,7,1,a,"[{""page_index"":0,""viewing_time"":1445}]",1446,,,,,,
,html-keyboard-response,87,1188121,0.0-2.0-0.5-0.25,1,1,2022-05-10 07:53:40,c659a6312084527fc8e3c63841c4439b,,"Mozilla/5.0 (Windows NT 10.0; Win64; x64) AppleWebKit/537.36 (KHTML, like Gecko) Chrome/101.0.4951.54 Safari/537.36 Edg/101.0.1210.39",WebKit,Edge,101.0.1210.39,Windows,10.0,7,1,a,,null,"<div style=""font-size:70px;"">P<br><br><br><br></div>",null,,,,
,html-button-operationspan,88,1192217,0.0-2.0-0.5-1.25,1,1,2022-05-10 07:53:40,c659a6312084527fc8e3c63841c4439b,,"Mozilla/5.0 (Windows NT 10.0; Win64; x64) AppleWebKit/537.36 (KHTML, like Gecko) Chrome/101.0.4951.54 Safari/537.36 Edg/101.0.1210.39",WebKit,Edge,101.0.1210.39,Windows,10.0,7,1,a,,4093,"<div style=""font-size:46px;"">6 - 4 = 2<br><br><br><br></div>",,1,,,
,html-keyboard-response,89,1192220,0.0-2.0-0.5-2.25,1,1,2022-05-10 07:53:40,c659a6312084527fc8e3c63841c4439b,,"Mozilla/5.0 (Windows NT 10.0; Win64; x64) AppleWebKit/537.36 (KHTML, like Gecko) Chrome/101.0.4951.54 Safari/537.36 Edg/101.0.1210.39",WebKit,Edge,101.0.1210.39,Windows,10.0,7,1,a,,null, ,null,,,,
,html-keyboard-response,90,1193232,0.0-2.0-0.5-0.26,1,1,2022-05-10 07:53:40,c659a6312084527fc8e3c63841c4439b,,"Mozilla/5.0 (Windows NT 10.0; Win64; x64) AppleWebKit/537.36 (KHTML, like Gecko) Chrome/101.0.4951.54 Safari/537.36 Edg/101.0.1210.39",WebKit,Edge,101.0.1210.39,Windows,10.0,7,1,a,,null,"<div style=""font-size:70px;"">K<br><br><br><br></div>",null,,,,
,html-button-operationspan,91,1195177,0.0-2.0-0.5-1.26,1,1,2022-05-10 07:53:40,c659a6312084527fc8e3c63841c4439b,,"Mozilla/5.0 (Windows NT 10.0; Win64; x64) AppleWebKit/537.36 (KHTML, like Gecko) Chrome/101.0.4951.54 Safari/537.36 Edg/101.0.1210.39",WebKit,Edge,101.0.1210.39,Windows,10.0,7,1,a,,1943,"<div style=""font-size:46px;"">5 - 4 = 2<br><br><br><br></div>",,1,,,
,html-keyboard-response,92,1195182,0.0-2.0-0.5-2.26,1,1,2022-05-10 07:53:40,c659a6312084527fc8e3c63841c4439b,,"Mozilla/5.0 (Windows NT 10.0; Win64; x64) AppleWebKit/537.36 (KHTML, like Gecko) Chrome/101.0.4951.54 Safari/537.36 Edg/101.0.1210.39",WebKit,Edge,101.0.1210.39,Windows,10.0,7,1,a,,null, ,null,,,,
,html-keyboard-response,93,1196193,0.0-2.0-0.5-0.27,1,1,2022-05-10 07:53:40,c659a6312084527fc8e3c63841c4439b,,"Mozilla/5.0 (Windows NT 10.0; Win64; x64) AppleWebKit/537.36 (KHTML, like Gecko) Chrome/101.0.4951.54 Safari/537.36 Edg/101.0.1210.39",WebKit,Edge,101.0.1210.39,Windows,10.0,7,1,a,,null,"<div style=""font-size:70px;"">S<br><br><br><br></div>",null,,,,
,html-button-operationspan,94,1197681,0.0-2.0-0.5-1.27,1,1,2022-05-10 07:53:40,c659a6312084527fc8e3c63841c4439b,,"Mozilla/5.0 (Windows NT 10.0; Win64; x64) AppleWebKit/537.36 (KHTML, like Gecko) Chrome/101.0.4951.54 Safari/537.36 Edg/101.0.1210.39",WebKit,Edge,101.0.1210.39,Windows,10.0,7,1,a,,1484,"<div style=""font-size:46px;"">2 - 1 = 1<br><br><br><br></div>",,1,,,
,html-keyboard-response,95,1197686,0.0-2.0-0.5-2.27,1,1,2022-05-10 07:53:40,c659a6312084527fc8e3c63841c4439b,,"Mozilla/5.0 (Windows NT 10.0; Win64; x64) AppleWebKit/537.36 (KHTML, like Gecko) Chrome/101.0.4951.54 Safari/537.36 Edg/101.0.1210.39",WebKit,Edge,101.0.1210.39,Windows,10.0,7,1,a,,null, ,null,,,,
,html-keyboard-response,96,1198690,0.0-2.0-0.5-0.28,1,1,2022-05-10 07:53:40,c659a6312084527fc8e3c63841c4439b,,"Mozilla/5.0 (Windows NT 10.0; Win64; x64) AppleWebKit/537.36 (KHTML, like Gecko) Chrome/101.0.4951.54 Safari/537.36 Edg/101.0.1210.39",WebKit,Edge,101.0.1210.39,Windows,10.0,7,1,a,,null,"<div style=""font-size:70px;"">L<br><br><br><br></div>",null,,,,
,html-button-operationspan,97,1200169,0.0-2.0-0.5-1.28,1,1,2022-05-10 07:53:40,c659a6312084527fc8e3c63841c4439b,,"Mozilla/5.0 (Windows NT 10.0; Win64; x64) AppleWebKit/537.36 (KHTML, like Gecko) Chrome/101.0.4951.54 Safari/537.36 Edg/101.0.1210.39",WebKit,Edge,101.0.1210.39,Windows,10.0,7,1,a,,1474,"<div style=""font-size:46px;"">10 - 3 = 7<br><br><br><br></div>",,1,,,
,html-keyboard-response,98,1200173,0.0-2.0-0.5-2.28,1,1,2022-05-10 07:53:40,c659a6312084527fc8e3c63841c4439b,,"Mozilla/5.0 (Windows NT 10.0; Win64; x64) AppleWebKit/537.36 (KHTML, like Gecko) Chrome/101.0.4951.54 Safari/537.36 Edg/101.0.1210.39",WebKit,Edge,101.0.1210.39,Windows,10.0,7,1,a,,null, ,null,,,,
,html-keyboard-response,99,1201183,0.0-2.0-0.5-0.29,1,1,2022-05-10 07:53:40,c659a6312084527fc8e3c63841c4439b,,"Mozilla/5.0 (Windows NT 10.0; Win64; x64) AppleWebKit/537.36 (KHTML, like Gecko) Chrome/101.0.4951.54 Safari/537.36 Edg/101.0.1210.39",WebKit,Edge,101.0.1210.39,Windows,10.0,7,1,a,,null,"<div style=""font-size:70px;"">T<br><br><br><br></div>",null,,,,
,html-button-operationspan,100,1205362,0.0-2.0-0.5-1.29,1,1,2022-05-10 07:53:40,c659a6312084527fc8e3c63841c4439b,,"Mozilla/5.0 (Windows NT 10.0; Win64; x64) AppleWebKit/537.36 (KHTML, like Gecko) Chrome/101.0.4951.54 Safari/537.36 Edg/101.0.1210.39",WebKit,Edge,101.0.1210.39,Windows,10.0,7,1,a,,4175,"<div style=""font-size:46px;"">3 + 5 = 7<br><br><br><br></div>",,1,,,
,html-keyboard-response,101,1205367,0.0-2.0-0.5-2.29,1,1,2022-05-10 07:53:40,c659a6312084527fc8e3c63841c4439b,,"Mozilla/5.0 (Windows NT 10.0; Win64; x64) AppleWebKit/537.36 (KHTML, like Gecko) Chrome/101.0.4951.54 Safari/537.36 Edg/101.0.1210.39",WebKit,Edge,101.0.1210.39,Windows,10.0,7,1,a,,null, ,null,,,,
,operation-span-recall,102,1214289,0.0-2.0-1.5,1,1,2022-05-10 07:53:40,c659a6312084527fc8e3c63841c4439b,,"Mozilla/5.0 (Windows NT 10.0; Win64; x64) AppleWebKit/537.36 (KHTML, like Gecko) Chrome/101.0.4951.54 Safari/537.36 Edg/101.0.1210.39",WebKit,Edge,101.0.1210.39,Windows,10.0,7,1,a,,8918,,,3,"P,K,L,S,T","P,K,S,L,T",5
,instructions,103,1215641,0.0-2.0-2.5,1,1,2022-05-10 07:53:40,c659a6312084527fc8e3c63841c4439b,,"Mozilla/5.0 (Windows NT 10.0; Win64; x64) AppleWebKit/537.36 (KHTML, like Gecko) Chrome/101.0.4951.54 Safari/537.36 Edg/101.0.1210.39",WebKit,Edge,101.0.1210.39,Windows,10.0,7,1,a,"[{""page_index"":0,""viewing_time"":1349}]",1350,,,,,,
true,fullscreen,104,1216657,0.0-3.0,1,1,2022-05-10 07:53:40,c659a6312084527fc8e3c63841c4439b,,"Mozilla/5.0 (Windows NT 10.0; Win64; x64) AppleWebKit/537.36 (KHTML, like Gecko) Chrome/101.0.4951.54 Safari/537.36 Edg/101.0.1210.39",WebKit,Edge,101.0.1210.39,Windows,10.0,7,1,a,,,,,,,,
,html-keyboard-response,105,1476020,0.0-4.0,1,1,2022-05-10 07:53:40,c659a6312084527fc8e3c63841c4439b,,"Mozilla/5.0 (Windows NT 10.0; Win64; x64) AppleWebKit/537.36 (KHTML, like Gecko) Chrome/101.0.4951.54 Safari/537.36 Edg/101.0.1210.39",WebKit,Edge,101.0.1210.39,Windows,10.0,7,1,a,,259359,"<div style=""font-size:20px;"">This task is over.<br><br>    Thank you for your participation in this task. <br><br>    Press space to end the task.</div>",32,,,,
true,fullscreen,0,1206021,0.0-0.0,2,1,2022-05-10 07:54:57,c659a6312084527fc8e3c63841c4439b,,"Mozilla/5.0 (Windows NT 10.0; Win64; x64) AppleWebKit/537.36 (KHTML, like Gecko) Chrome/101.0.4951.54 Safari/537.36 Edg/101.0.1210.39",WebKit,Edge,101.0.1210.39,Windows,10.0,7,2,a,,,,,,,,
,instructions,1,1209951,0.0-1.0,2,1,2022-05-10 07:54:57,c659a6312084527fc8e3c63841c4439b,,"Mozilla/5.0 (Windows NT 10.0; Win64; x64) AppleWebKit/537.36 (KHTML, like Gecko) Chrome/101.0.4951.54 Safari/537.36 Edg/101.0.1210.39",WebKit,Edge,101.0.1210.39,Windows,10.0,7,2,a,"[{""page_index"":0,""viewing_time"":3926}]",3927,,,,,,
,html-keyboard-response,2,1210954,0.0-2.0-0.0-0.0,2,1,2022-05-10 07:54:57,c659a6312084527fc8e3c63841c4439b,,"Mozilla/5.0 (Windows NT 10.0; Win64; x64) AppleWebKit/537.36 (KHTML, like Gecko) Chrome/101.0.4951.54 Safari/537.36 Edg/101.0.1210.39",WebKit,Edge,101.0.1210.39,Windows,10.0,7,2,a,,null,"<div style=""font-size:70px;"">F<br><br><br><br></div>",null,,,,
,html-button-operationspan,3,1214207,0.0-2.0-0.0-1.0,2,1,2022-05-10 07:54:57,c659a6312084527fc8e3c63841c4439b,,"Mozilla/5.0 (Windows NT 10.0; Win64; x64) AppleWebKit/537.36 (KHTML, like Gecko) Chrome/101.0.4951.54 Safari/537.36 Edg/101.0.1210.39",WebKit,Edge,101.0.1210.39,Windows,10.0,7,2,a,,3250,"<div style=""font-size:46px;"">9 + 7 = 15<br><br><br><br></div>",,1,,,
,html-keyboard-response,4,1214211,0.0-2.0-0.0-2.0,2,1,2022-05-10 07:54:57,c659a6312084527fc8e3c63841c4439b,,"Mozilla/5.0 (Windows NT 10.0; Win64; x64) AppleWebKit/537.36 (KHTML, like Gecko) Chrome/101.0.4951.54 Safari/537.36 Edg/101.0.1210.39",WebKit,Edge,101.0.1210.39,Windows,10.0,7,2,a,,null, ,null,,,,
,html-keyboard-response,5,1215214,0.0-2.0-0.0-0.1,2,1,2022-05-10 07:54:57,c659a6312084527fc8e3c63841c4439b,,"Mozilla/5.0 (Windows NT 10.0; Win64; x64) AppleWebKit/537.36 (KHTML, like Gecko) Chrome/101.0.4951.54 Safari/537.36 Edg/101.0.1210.39",WebKit,Edge,101.0.1210.39,Windows,10.0,7,2,a,,null,"<div style=""font-size:70px;"">P<br><br><br><br></div>",null,,,,
,html-button-operationspan,6,1217526,0.0-2.0-0.0-1.1,2,1,2022-05-10 07:54:57,c659a6312084527fc8e3c63841c4439b,,"Mozilla/5.0 (Windows NT 10.0; Win64; x64) AppleWebKit/537.36 (KHTML, like Gecko) Chrome/101.0.4951.54 Safari/537.36 Edg/101.0.1210.39",WebKit,Edge,101.0.1210.39,Windows,10.0,7,2,a,,2311,"<div style=""font-size:46px;"">9 - 6 = 4<br><br><br><br></div>",,1,,,
,html-keyboard-response,7,1217529,0.0-2.0-0.0-2.1,2,1,2022-05-10 07:54:57,c659a6312084527fc8e3c63841c4439b,,"Mozilla/5.0 (Windows NT 10.0; Win64; x64) AppleWebKit/537.36 (KHTML, like Gecko) Chrome/101.0.4951.54 Safari/537.36 Edg/101.0.1210.39",WebKit,Edge,101.0.1210.39,Windows,10.0,7,2,a,,null, ,null,,,,
,html-keyboard-response,8,1218538,0.0-2.0-0.0-0.2,2,1,2022-05-10 07:54:57,c659a6312084527fc8e3c63841c4439b,,"Mozilla/5.0 (Windows NT 10.0; Win64; x64) AppleWebKit/537.36 (KHTML, like Gecko) Chrome/101.0.4951.54 Safari/537.36 Edg/101.0.1210.39",WebKit,Edge,101.0.1210.39,Windows,10.0,7,2,a,,null,"<div style=""font-size:70px;"">T<br><br><br><br></div>",null,,,,
,html-button-operationspan,9,1223094,0.0-2.0-0.0-1.2,2,1,2022-05-10 07:54:57,c659a6312084527fc8e3c63841c4439b,,"Mozilla/5.0 (Windows NT 10.0; Win64; x64) AppleWebKit/537.36 (KHTML, like Gecko) Chrome/101.0.4951.54 Safari/537.36 Edg/101.0.1210.39",WebKit,Edge,101.0.1210.39,Windows,10.0,7,2,a,,4554,"<div style=""font-size:46px;"">4 + 9 = 11<br><br><br><br></div>",,1,,,
,html-keyboard-response,10,1223098,0.0-2.0-0.0-2.2,2,1,2022-05-10 07:54:57,c659a6312084527fc8e3c63841c4439b,,"Mozilla/5.0 (Windows NT 10.0; Win64; x64) AppleWebKit/537.36 (KHTML, like Gecko) Chrome/101.0.4951.54 Safari/537.36 Edg/101.0.1210.39",WebKit,Edge,101.0.1210.39,Windows,10.0,7,2,a,,null, ,null,,,,
,html-keyboard-response,11,1224100,0.0-2.0-0.0-0.3,2,1,2022-05-10 07:54:57,c659a6312084527fc8e3c63841c4439b,,"Mozilla/5.0 (Windows NT 10.0; Win64; x64) AppleWebKit/537.36 (KHTML, like Gecko) Chrome/101.0.4951.54 Safari/537.36 Edg/101.0.1210.39",WebKit,Edge,101.0.1210.39,Windows,10.0,7,2,a,,null,"<div style=""font-size:70px;"">R<br><br><br><br></div>",null,,,,
,html-button-operationspan,12,1225830,0.0-2.0-0.0-1.3,2,1,2022-05-10 07:54:57,c659a6312084527fc8e3c63841c4439b,,"Mozilla/5.0 (Windows NT 10.0; Win64; x64) AppleWebKit/537.36 (KHTML, like Gecko) Chrome/101.0.4951.54 Safari/537.36 Edg/101.0.1210.39",WebKit,Edge,101.0.1210.39,Windows,10.0,7,2,a,,1729,"<div style=""font-size:46px;"">1 + 10 = 11<br><br><br><br></div>",,1,,,
,html-keyboard-response,13,1225833,0.0-2.0-0.0-2.3,2,1,2022-05-10 07:54:57,c659a6312084527fc8e3c63841c4439b,,"Mozilla/5.0 (Windows NT 10.0; Win64; x64) AppleWebKit/537.36 (KHTML, like Gecko) Chrome/101.0.4951.54 Safari/537.36 Edg/101.0.1210.39",WebKit,Edge,101.0.1210.39,Windows,10.0,7,2,a,,null, ,null,,,,
,html-keyboard-response,14,1226834,0.0-2.0-0.0-0.4,2,1,2022-05-10 07:54:57,c659a6312084527fc8e3c63841c4439b,,"Mozilla/5.0 (Windows NT 10.0; Win64; x64) AppleWebKit/537.36 (KHTML, like Gecko) Chrome/101.0.4951.54 Safari/537.36 Edg/101.0.1210.39",WebKit,Edge,101.0.1210.39,Windows,10.0,7,2,a,,null,"<div style=""font-size:70px;"">V<br><br><br><br></div>",null,,,,
,html-button-operationspan,15,1228527,0.0-2.0-0.0-1.4,2,1,2022-05-10 07:54:57,c659a6312084527fc8e3c63841c4439b,,"Mozilla/5.0 (Windows NT 10.0; Win64; x64) AppleWebKit/537.36 (KHTML, like Gecko) Chrome/101.0.4951.54 Safari/537.36 Edg/101.0.1210.39",WebKit,Edge,101.0.1210.39,Windows,10.0,7,2,a,,1691,"<div style=""font-size:46px;"">6 + 9 = 16<br><br><br><br></div>",,1,,,
,html-keyboard-response,16,1228532,0.0-2.0-0.0-2.4,2,1,2022-05-10 07:54:57,c659a6312084527fc8e3c63841c4439b,,"Mozilla/5.0 (Windows NT 10.0; Win64; x64) AppleWebKit/537.36 (KHTML, like Gecko) Chrome/101.0.4951.54 Safari/537.36 Edg/101.0.1210.39",WebKit,Edge,101.0.1210.39,Windows,10.0,7,2,a,,null, ,null,,,,
,html-keyboard-response,17,1229533,0.0-2.0-0.0-0.5,2,1,2022-05-10 07:54:57,c659a6312084527fc8e3c63841c4439b,,"Mozilla/5.0 (Windows NT 10.0; Win64; x64) AppleWebKit/537.36 (KHTML, like Gecko) Chrome/101.0.4951.54 Safari/537.36 Edg/101.0.1210.39",WebKit,Edge,101.0.1210.39,Windows,10.0,7,2,a,,null,"<div style=""font-size:70px;"">L<br><br><br><br></div>",null,,,,
,html-button-operationspan,18,1232862,0.0-2.0-0.0-1.5,2,1,2022-05-10 07:54:57,c659a6312084527fc8e3c63841c4439b,,"Mozilla/5.0 (Windows NT 10.0; Win64; x64) AppleWebKit/537.36 (KHTML, like Gecko) Chrome/101.0.4951.54 Safari/537.36 Edg/101.0.1210.39",WebKit,Edge,101.0.1210.39,Windows,10.0,7,2,a,,3328,"<div style=""font-size:46px;"">8 - 4 = 6<br><br><br><br></div>",,1,,,
,html-keyboard-response,19,1232866,0.0-2.0-0.0-2.5,2,1,2022-05-10 07:54:57,c659a6312084527fc8e3c63841c4439b,,"Mozilla/5.0 (Windows NT 10.0; Win64; x64) AppleWebKit/537.36 (KHTML, like Gecko) Chrome/101.0.4951.54 Safari/537.36 Edg/101.0.1210.39",WebKit,Edge,101.0.1210.39,Windows,10.0,7,2,a,,null, ,null,,,,
,operation-span-recall,20,1243942,0.0-2.0-1.0,2,1,2022-05-10 07:54:57,c659a6312084527fc8e3c63841c4439b,,"Mozilla/5.0 (Windows NT 10.0; Win64; x64) AppleWebKit/537.36 (KHTML, like Gecko) Chrome/101.0.4951.54 Safari/537.36 Edg/101.0.1210.39",WebKit,Edge,101.0.1210.39,Windows,10.0,7,2,a,,11070,,,4,"F,P,T,R,L","F,P,T,R,V,L",6
,instructions,21,1247791,0.0-2.0-2.0,2,1,2022-05-10 07:54:57,c659a6312084527fc8e3c63841c4439b,,"Mozilla/5.0 (Windows NT 10.0; Win64; x64) AppleWebKit/537.36 (KHTML, like Gecko) Chrome/101.0.4951.54 Safari/537.36 Edg/101.0.1210.39",WebKit,Edge,101.0.1210.39,Windows,10.0,7,2,a,"[{""page_index"":0,""viewing_time"":3848}]",3848,,,,,,
,html-keyboard-response,22,1248792,0.0-2.0-0.1-0.6,2,1,2022-05-10 07:54:57,c659a6312084527fc8e3c63841c4439b,,"Mozilla/5.0 (Windows NT 10.0; Win64; x64) AppleWebKit/537.36 (KHTML, like Gecko) Chrome/101.0.4951.54 Safari/537.36 Edg/101.0.1210.39",WebKit,Edge,101.0.1210.39,Windows,10.0,7,2,a,,null,"<div style=""font-size:70px;"">Q<br><br><br><br></div>",null,,,,
,html-button-operationspan,23,1250598,0.0-2.0-0.1-1.6,2,1,2022-05-10 07:54:57,c659a6312084527fc8e3c63841c4439b,,"Mozilla/5.0 (Windows NT 10.0; Win64; x64) AppleWebKit/537.36 (KHTML, like Gecko) Chrome/101.0.4951.54 Safari/537.36 Edg/101.0.1210.39",WebKit,Edge,101.0.1210.39,Windows,10.0,7,2,a,,1804,"<div style=""font-size:46px;"">9 + 4 = 13<br><br><br><br></div>",,1,,,
,html-keyboard-response,24,1250601,0.0-2.0-0.1-2.6,2,1,2022-05-10 07:54:57,c659a6312084527fc8e3c63841c4439b,,"Mozilla/5.0 (Windows NT 10.0; Win64; x64) AppleWebKit/537.36 (KHTML, like Gecko) Chrome/101.0.4951.54 Safari/537.36 Edg/101.0.1210.39",WebKit,Edge,101.0.1210.39,Windows,10.0,7,2,a,,null, ,null,,,,
,html-keyboard-response,25,1251603,0.0-2.0-0.1-0.7,2,1,2022-05-10 07:54:57,c659a6312084527fc8e3c63841c4439b,,"Mozilla/5.0 (Windows NT 10.0; Win64; x64) AppleWebKit/537.36 (KHTML, like Gecko) Chrome/101.0.4951.54 Safari/537.36 Edg/101.0.1210.39",WebKit,Edge,101.0.1210.39,Windows,10.0,7,2,a,,null,"<div style=""font-size:70px;"">P<br><br><br><br></div>",null,,,,
,html-button-operationspan,26,1253870,0.0-2.0-0.1-1.7,2,1,2022-05-10 07:54:57,c659a6312084527fc8e3c63841c4439b,,"Mozilla/5.0 (Windows NT 10.0; Win64; x64) AppleWebKit/537.36 (KHTML, like Gecko) Chrome/101.0.4951.54 Safari/537.36 Edg/101.0.1210.39",WebKit,Edge,101.0.1210.39,Windows,10.0,7,2,a,,2265,"<div style=""font-size:46px;"">4 - 1 = 2<br><br><br><br></div>",,1,,,
,html-keyboard-response,27,1253874,0.0-2.0-0.1-2.7,2,1,2022-05-10 07:54:57,c659a6312084527fc8e3c63841c4439b,,"Mozilla/5.0 (Windows NT 10.0; Win64; x64) AppleWebKit/537.36 (KHTML, like Gecko) Chrome/101.0.4951.54 Safari/537.36 Edg/101.0.1210.39",WebKit,Edge,101.0.1210.39,Windows,10.0,7,2,a,,null, ,null,,,,
,html-keyboard-response,28,1254876,0.0-2.0-0.1-0.8,2,1,2022-05-10 07:54:57,c659a6312084527fc8e3c63841c4439b,,"Mozilla/5.0 (Windows NT 10.0; Win64; x64) AppleWebKit/537.36 (KHTML, like Gecko) Chrome/101.0.4951.54 Safari/537.36 Edg/101.0.1210.39",WebKit,Edge,101.0.1210.39,Windows,10.0,7,2,a,,null,"<div style=""font-size:70px;"">V<br><br><br><br></div>",null,,,,
,html-button-operationspan,29,1256734,0.0-2.0-0.1-1.8,2,1,2022-05-10 07:54:57,c659a6312084527fc8e3c63841c4439b,,"Mozilla/5.0 (Windows NT 10.0; Win64; x64) AppleWebKit/537.36 (KHTML, like Gecko) Chrome/101.0.4951.54 Safari/537.36 Edg/101.0.1210.39",WebKit,Edge,101.0.1210.39,Windows,10.0,7,2,a,,1856,"<div style=""font-size:46px;"">10 + 9 = 19<br><br><br><br></div>",,1,,,
,html-keyboard-response,30,1256737,0.0-2.0-0.1-2.8,2,1,2022-05-10 07:54:57,c659a6312084527fc8e3c63841c4439b,,"Mozilla/5.0 (Windows NT 10.0; Win64; x64) AppleWebKit/537.36 (KHTML, like Gecko) Chrome/101.0.4951.54 Safari/537.36 Edg/101.0.1210.39",WebKit,Edge,101.0.1210.39,Windows,10.0,7,2,a,,null, ,null,,,,
,html-keyboard-response,31,1257741,0.0-2.0-0.1-0.9,2,1,2022-05-10 07:54:57,c659a6312084527fc8e3c63841c4439b,,"Mozilla/5.0 (Windows NT 10.0; Win64; x64) AppleWebKit/537.36 (KHTML, like Gecko) Chrome/101.0.4951.54 Safari/537.36 Edg/101.0.1210.39",WebKit,Edge,101.0.1210.39,Windows,10.0,7,2,a,,null,"<div style=""font-size:70px;"">T<br><br><br><br></div>",null,,,,
,html-button-operationspan,32,1259119,0.0-2.0-0.1-1.9,2,1,2022-05-10 07:54:57,c659a6312084527fc8e3c63841c4439b,,"Mozilla/5.0 (Windows NT 10.0; Win64; x64) AppleWebKit/537.36 (KHTML, like Gecko) Chrome/101.0.4951.54 Safari/537.36 Edg/101.0.1210.39",WebKit,Edge,101.0.1210.39,Windows,10.0,7,2,a,,1375,"<div style=""font-size:46px;"">4 - 2 = 2<br><br><br><br></div>",,1,,,
,html-keyboard-response,33,1259123,0.0-2.0-0.1-2.9,2,1,2022-05-10 07:54:57,c659a6312084527fc8e3c63841c4439b,,"Mozilla/5.0 (Windows NT 10.0; Win64; x64) AppleWebKit/537.36 (KHTML, like Gecko) Chrome/101.0.4951.54 Safari/537.36 Edg/101.0.1210.39",WebKit,Edge,101.0.1210.39,Windows,10.0,7,2,a,,null, ,null,,,,
,html-keyboard-response,34,1260126,0.0-2.0-0.1-0.10,2,1,2022-05-10 07:54:57,c659a6312084527fc8e3c63841c4439b,,"Mozilla/5.0 (Windows NT 10.0; Win64; x64) AppleWebKit/537.36 (KHTML, like Gecko) Chrome/101.0.4951.54 Safari/537.36 Edg/101.0.1210.39",WebKit,Edge,101.0.1210.39,Windows,10.0,7,2,a,,null,"<div style=""font-size:70px;"">S<br><br><br><br></div>",null,,,,
,html-button-operationspan,35,1261871,0.0-2.0-0.1-1.10,2,1,2022-05-10 07:54:57,c659a6312084527fc8e3c63841c4439b,,"Mozilla/5.0 (Windows NT 10.0; Win64; x64) AppleWebKit/537.36 (KHTML, like Gecko) Chrome/101.0.4951.54 Safari/537.36 Edg/101.0.1210.39",WebKit,Edge,101.0.1210.39,Windows,10.0,7,2,a,,1742,"<div style=""font-size:46px;"">1 + 3 = 5<br><br><br><br></div>",,1,,,
,html-keyboard-response,36,1261874,0.0-2.0-0.1-2.10,2,1,2022-05-10 07:54:57,c659a6312084527fc8e3c63841c4439b,,"Mozilla/5.0 (Windows NT 10.0; Win64; x64) AppleWebKit/537.36 (KHTML, like Gecko) Chrome/101.0.4951.54 Safari/537.36 Edg/101.0.1210.39",WebKit,Edge,101.0.1210.39,Windows,10.0,7,2,a,,null, ,null,,,,
,html-keyboard-response,37,1262876,0.0-2.0-0.1-0.11,2,1,2022-05-10 07:54:57,c659a6312084527fc8e3c63841c4439b,,"Mozilla/5.0 (Windows NT 10.0; Win64; x64) AppleWebKit/537.36 (KHTML, like Gecko) Chrome/101.0.4951.54 Safari/537.36 Edg/101.0.1210.39",WebKit,Edge,101.0.1210.39,Windows,10.0,7,2,a,,null,"<div style=""font-size:70px;"">L<br><br><br><br></div>",null,,,,
,html-button-operationspan,38,1264735,0.0-2.0-0.1-1.11,2,1,2022-05-10 07:54:57,c659a6312084527fc8e3c63841c4439b,,"Mozilla/5.0 (Windows NT 10.0; Win64; x64) AppleWebKit/537.36 (KHTML, like Gecko) Chrome/101.0.4951.54 Safari/537.36 Edg/101.0.1210.39",WebKit,Edge,101.0.1210.39,Windows,10.0,7,2,a,,1856,"<div style=""font-size:46px;"">4 - 3 = 1<br><br><br><br></div>",,1,,,
,html-keyboard-response,39,1264739,0.0-2.0-0.1-2.11,2,1,2022-05-10 07:54:57,c659a6312084527fc8e3c63841c4439b,,"Mozilla/5.0 (Windows NT 10.0; Win64; x64) AppleWebKit/537.36 (KHTML, like Gecko) Chrome/101.0.4951.54 Safari/537.36 Edg/101.0.1210.39",WebKit,Edge,101.0.1210.39,Windows,10.0,7,2,a,,null, ,null,,,,
,operation-span-recall,40,1277534,0.0-2.0-1.1,2,1,2022-05-10 07:54:57,c659a6312084527fc8e3c63841c4439b,,"Mozilla/5.0 (Windows NT 10.0; Win64; x64) AppleWebKit/537.36 (KHTML, like Gecko) Chrome/101.0.4951.54 Safari/537.36 Edg/101.0.1210.39",WebKit,Edge,101.0.1210.39,Windows,10.0,7,2,a,,12790,,,4,"Q,P,T,V,S,L","Q,P,V,T,S,L",6
,instructions,41,1279270,0.0-2.0-2.1,2,1,2022-05-10 07:54:57,c659a6312084527fc8e3c63841c4439b,,"Mozilla/5.0 (Windows NT 10.0; Win64; x64) AppleWebKit/537.36 (KHTML, like Gecko) Chrome/101.0.4951.54 Safari/537.36 Edg/101.0.1210.39",WebKit,Edge,101.0.1210.39,Windows,10.0,7,2,a,"[{""page_index"":0,""viewing_time"":1735}]",1735,,,,,,
,html-keyboard-response,42,1280283,0.0-2.0-0.2-0.12,2,1,2022-05-10 07:54:57,c659a6312084527fc8e3c63841c4439b,,"Mozilla/5.0 (Windows NT 10.0; Win64; x64) AppleWebKit/537.36 (KHTML, like Gecko) Chrome/101.0.4951.54 Safari/537.36 Edg/101.0.1210.39",WebKit,Edge,101.0.1210.39,Windows,10.0,7,2,a,,null,"<div style=""font-size:70px;"">S<br><br><br><br></div>",null,,,,
,html-button-operationspan,43,1282350,0.0-2.0-0.2-1.12,2,1,2022-05-10 07:54:57,c659a6312084527fc8e3c63841c4439b,,"Mozilla/5.0 (Windows NT 10.0; Win64; x64) AppleWebKit/537.36 (KHTML, like Gecko) Chrome/101.0.4951.54 Safari/537.36 Edg/101.0.1210.39",WebKit,Edge,101.0.1210.39,Windows,10.0,7,2,a,,2064,"<div style=""font-size:46px;"">2 - 1 = 1<br><br><br><br></div>",,1,,,
,html-keyboard-response,44,1282355,0.0-2.0-0.2-2.12,2,1,2022-05-10 07:54:57,c659a6312084527fc8e3c63841c4439b,,"Mozilla/5.0 (Windows NT 10.0; Win64; x64) AppleWebKit/537.36 (KHTML, like Gecko) Chrome/101.0.4951.54 Safari/537.36 Edg/101.0.1210.39",WebKit,Edge,101.0.1210.39,Windows,10.0,7,2,a,,null, ,null,,,,
,html-keyboard-response,45,1283356,0.0-2.0-0.2-0.13,2,1,2022-05-10 07:54:57,c659a6312084527fc8e3c63841c4439b,,"Mozilla/5.0 (Windows NT 10.0; Win64; x64) AppleWebKit/537.36 (KHTML, like Gecko) Chrome/101.0.4951.54 Safari/537.36 Edg/101.0.1210.39",WebKit,Edge,101.0.1210.39,Windows,10.0,7,2,a,,null,"<div style=""font-size:70px;"">J<br><br><br><br></div>",null,,,,
,html-button-operationspan,46,1285487,0.0-2.0-0.2-1.13,2,1,2022-05-10 07:54:57,c659a6312084527fc8e3c63841c4439b,,"Mozilla/5.0 (Windows NT 10.0; Win64; x64) AppleWebKit/537.36 (KHTML, like Gecko) Chrome/101.0.4951.54 Safari/537.36 Edg/101.0.1210.39",WebKit,Edge,101.0.1210.39,Windows,10.0,7,2,a,,2128,"<div style=""font-size:46px;"">3 + 8 = 10<br><br><br><br></div>",,1,,,
,html-keyboard-response,47,1285490,0.0-2.0-0.2-2.13,2,1,2022-05-10 07:54:57,c659a6312084527fc8e3c63841c4439b,,"Mozilla/5.0 (Windows NT 10.0; Win64; x64) AppleWebKit/537.36 (KHTML, like Gecko) Chrome/101.0.4951.54 Safari/537.36 Edg/101.0.1210.39",WebKit,Edge,101.0.1210.39,Windows,10.0,7,2,a,,null, ,null,,,,
,html-keyboard-response,48,1286492,0.0-2.0-0.2-0.14,2,1,2022-05-10 07:54:57,c659a6312084527fc8e3c63841c4439b,,"Mozilla/5.0 (Windows NT 10.0; Win64; x64) AppleWebKit/537.36 (KHTML, like Gecko) Chrome/101.0.4951.54 Safari/537.36 Edg/101.0.1210.39",WebKit,Edge,101.0.1210.39,Windows,10.0,7,2,a,,null,"<div style=""font-size:70px;"">N<br><br><br><br></div>",null,,,,
,html-button-operationspan,49,1290006,0.0-2.0-0.2-1.14,2,1,2022-05-10 07:54:57,c659a6312084527fc8e3c63841c4439b,,"Mozilla/5.0 (Windows NT 10.0; Win64; x64) AppleWebKit/537.36 (KHTML, like Gecko) Chrome/101.0.4951.54 Safari/537.36 Edg/101.0.1210.39",WebKit,Edge,101.0.1210.39,Windows,10.0,7,2,a,,3511,"<div style=""font-size:46px;"">2 + 9 = 11<br><br><br><br></div>",,1,,,
,html-keyboard-response,50,1290011,0.0-2.0-0.2-2.14,2,1,2022-05-10 07:54:57,c659a6312084527fc8e3c63841c4439b,,"Mozilla/5.0 (Windows NT 10.0; Win64; x64) AppleWebKit/537.36 (KHTML, like Gecko) Chrome/101.0.4951.54 Safari/537.36 Edg/101.0.1210.39",WebKit,Edge,101.0.1210.39,Windows,10.0,7,2,a,,null, ,null,,,,
,html-keyboard-response,51,1291013,0.0-2.0-0.2-0.15,2,1,2022-05-10 07:54:57,c659a6312084527fc8e3c63841c4439b,,"Mozilla/5.0 (Windows NT 10.0; Win64; x64) AppleWebKit/537.36 (KHTML, like Gecko) Chrome/101.0.4951.54 Safari/537.36 Edg/101.0.1210.39",WebKit,Edge,101.0.1210.39,Windows,10.0,7,2,a,,null,"<div style=""font-size:70px;"">V<br><br><br><br></div>",null,,,,
,html-button-operationspan,52,1293830,0.0-2.0-0.2-1.15,2,1,2022-05-10 07:54:57,c659a6312084527fc8e3c63841c4439b,,"Mozilla/5.0 (Windows NT 10.0; Win64; x64) AppleWebKit/537.36 (KHTML, like Gecko) Chrome/101.0.4951.54 Safari/537.36 Edg/101.0.1210.39",WebKit,Edge,101.0.1210.39,Windows,10.0,7,2,a,,2815,"<div style=""font-size:46px;"">5 + 2 = 7<br><br><br><br></div>",,1,,,
,html-keyboard-response,53,1293834,0.0-2.0-0.2-2.15,2,1,2022-05-10 07:54:57,c659a6312084527fc8e3c63841c4439b,,"Mozilla/5.0 (Windows NT 10.0; Win64; x64) AppleWebKit/537.36 (KHTML, like Gecko) Chrome/101.0.4951.54 Safari/537.36 Edg/101.0.1210.39",WebKit,Edge,101.0.1210.39,Windows,10.0,7,2,a,,null, ,null,,,,
,html-keyboard-response,54,1294852,0.0-2.0-0.2-0.16,2,1,2022-05-10 07:54:57,c659a6312084527fc8e3c63841c4439b,,"Mozilla/5.0 (Windows NT 10.0; Win64; x64) AppleWebKit/537.36 (KHTML, like Gecko) Chrome/101.0.4951.54 Safari/537.36 Edg/101.0.1210.39",WebKit,Edge,101.0.1210.39,Windows,10.0,7,2,a,,null,"<div style=""font-size:70px;"">F<br><br><br><br></div>",null,,,,
,html-button-operationspan,55,1296494,0.0-2.0-0.2-1.16,2,1,2022-05-10 07:54:57,c659a6312084527fc8e3c63841c4439b,,"Mozilla/5.0 (Windows NT 10.0; Win64; x64) AppleWebKit/537.36 (KHTML, like Gecko) Chrome/101.0.4951.54 Safari/537.36 Edg/101.0.1210.39",WebKit,Edge,101.0.1210.39,Windows,10.0,7,2,a,,1640,"<div style=""font-size:46px;"">7 + 2 = 9<br><br><br><br></div>",,1,,,
,html-keyboard-response,56,1296497,0.0-2.0-0.2-2.16,2,1,2022-05-10 07:54:57,c659a6312084527fc8e3c63841c4439b,,"Mozilla/5.0 (Windows NT 10.0; Win64; x64) AppleWebKit/537.36 (KHTML, like Gecko) Chrome/101.0.4951.54 Safari/537.36 Edg/101.0.1210.39",WebKit,Edge,101.0.1210.39,Windows,10.0,7,2,a,,null, ,null,,,,
,operation-span-recall,57,1307038,0.0-2.0-1.2,2,1,2022-05-10 07:54:57,c659a6312084527fc8e3c63841c4439b,,"Mozilla/5.0 (Windows NT 10.0; Win64; x64) AppleWebKit/537.36 (KHTML, like Gecko) Chrome/101.0.4951.54 Safari/537.36 Edg/101.0.1210.39",WebKit,Edge,101.0.1210.39,Windows,10.0,7,2,a,,10536,,,2,"S,J,V,N,S","S,J,N,V,F",5
,instructions,58,1308623,0.0-2.0-2.2,2,1,2022-05-10 07:54:57,c659a6312084527fc8e3c63841c4439b,,"Mozilla/5.0 (Windows NT 10.0; Win64; x64) AppleWebKit/537.36 (KHTML, like Gecko) Chrome/101.0.4951.54 Safari/537.36 Edg/101.0.1210.39",WebKit,Edge,101.0.1210.39,Windows,10.0,7,2,a,"[{""page_index"":0,""viewing_time"":1582}]",1583,,,,,,
,html-keyboard-response,59,1309625,0.0-2.0-0.3-0.17,2,1,2022-05-10 07:54:57,c659a6312084527fc8e3c63841c4439b,,"Mozilla/5.0 (Windows NT 10.0; Win64; x64) AppleWebKit/537.36 (KHTML, like Gecko) Chrome/101.0.4951.54 Safari/537.36 Edg/101.0.1210.39",WebKit,Edge,101.0.1210.39,Windows,10.0,7,2,a,,null,"<div style=""font-size:70px;"">K<br><br><br><br></div>",null,,,,
,html-button-operationspan,60,1313087,0.0-2.0-0.3-1.17,2,1,2022-05-10 07:54:57,c659a6312084527fc8e3c63841c4439b,,"Mozilla/5.0 (Windows NT 10.0; Win64; x64) AppleWebKit/537.36 (KHTML, like Gecko) Chrome/101.0.4951.54 Safari/537.36 Edg/101.0.1210.39",WebKit,Edge,101.0.1210.39,Windows,10.0,7,2,a,,3459,"<div style=""font-size:46px;"">7 + 3 = 12<br><br><br><br></div>",,1,,,
,html-keyboard-response,61,1313090,0.0-2.0-0.3-2.17,2,1,2022-05-10 07:54:57,c659a6312084527fc8e3c63841c4439b,,"Mozilla/5.0 (Windows NT 10.0; Win64; x64) AppleWebKit/537.36 (KHTML, like Gecko) Chrome/101.0.4951.54 Safari/537.36 Edg/101.0.1210.39",WebKit,Edge,101.0.1210.39,Windows,10.0,7,2,a,,null, ,null,,,,
,html-keyboard-response,62,1314094,0.0-2.0-0.3-0.18,2,1,2022-05-10 07:54:57,c659a6312084527fc8e3c63841c4439b,,"Mozilla/5.0 (Windows NT 10.0; Win64; x64) AppleWebKit/537.36 (KHTML, like Gecko) Chrome/101.0.4951.54 Safari/537.36 Edg/101.0.1210.39",WebKit,Edge,101.0.1210.39,Windows,10.0,7,2,a,,null,"<div style=""font-size:70px;"">H<br><br><br><br></div>",null,,,,
,html-button-operationspan,63,1316662,0.0-2.0-0.3-1.18,2,1,2022-05-10 07:54:57,c659a6312084527fc8e3c63841c4439b,,"Mozilla/5.0 (Windows NT 10.0; Win64; x64) AppleWebKit/537.36 (KHTML, like Gecko) Chrome/101.0.4951.54 Safari/537.36 Edg/101.0.1210.39",WebKit,Edge,101.0.1210.39,Windows,10.0,7,2,a,,2565,"<div style=""font-size:46px;"">4 + 8 = 12<br><br><br><br></div>",,1,,,
,html-keyboard-response,64,1316666,0.0-2.0-0.3-2.18,2,1,2022-05-10 07:54:57,c659a6312084527fc8e3c63841c4439b,,"Mozilla/5.0 (Windows NT 10.0; Win64; x64) AppleWebKit/537.36 (KHTML, like Gecko) Chrome/101.0.4951.54 Safari/537.36 Edg/101.0.1210.39",WebKit,Edge,101.0.1210.39,Windows,10.0,7,2,a,,null, ,null,,,,
,html-keyboard-response,65,1317674,0.0-2.0-0.3-0.19,2,1,2022-05-10 07:54:57,c659a6312084527fc8e3c63841c4439b,,"Mozilla/5.0 (Windows NT 10.0; Win64; x64) AppleWebKit/537.36 (KHTML, like Gecko) Chrome/101.0.4951.54 Safari/537.36 Edg/101.0.1210.39",WebKit,Edge,101.0.1210.39,Windows,10.0,7,2,a,,null,"<div style=""font-size:70px;"">L<br><br><br><br></div>",null,,,,
,html-button-operationspan,66,1318975,0.0-2.0-0.3-1.19,2,1,2022-05-10 07:54:57,c659a6312084527fc8e3c63841c4439b,,"Mozilla/5.0 (Windows NT 10.0; Win64; x64) AppleWebKit/537.36 (KHTML, like Gecko) Chrome/101.0.4951.54 Safari/537.36 Edg/101.0.1210.39",WebKit,Edge,101.0.1210.39,Windows,10.0,7,2,a,,1298,"<div style=""font-size:46px;"">3 + 3 = 6<br><br><br><br></div>",,1,,,
,html-keyboard-response,67,1318978,0.0-2.0-0.3-2.19,2,1,2022-05-10 07:54:57,c659a6312084527fc8e3c63841c4439b,,"Mozilla/5.0 (Windows NT 10.0; Win64; x64) AppleWebKit/537.36 (KHTML, like Gecko) Chrome/101.0.4951.54 Safari/537.36 Edg/101.0.1210.39",WebKit,Edge,101.0.1210.39,Windows,10.0,7,2,a,,null, ,null,,,,
,html-keyboard-response,68,1319980,0.0-2.0-0.3-0.20,2,1,2022-05-10 07:54:57,c659a6312084527fc8e3c63841c4439b,,"Mozilla/5.0 (Windows NT 10.0; Win64; x64) AppleWebKit/537.36 (KHTML, like Gecko) Chrome/101.0.4951.54 Safari/537.36 Edg/101.0.1210.39",WebKit,Edge,101.0.1210.39,Windows,10.0,7,2,a,,null,"<div style=""font-size:70px;"">S<br><br><br><br></div>",null,,,,
,html-button-operationspan,69,1321618,0.0-2.0-0.3-1.20,2,1,2022-05-10 07:54:57,c659a6312084527fc8e3c63841c4439b,,"Mozilla/5.0 (Windows NT 10.0; Win64; x64) AppleWebKit/537.36 (KHTML, like Gecko) Chrome/101.0.4951.54 Safari/537.36 Edg/101.0.1210.39",WebKit,Edge,101.0.1210.39,Windows,10.0,7,2,a,,1635,"<div style=""font-size:46px;"">2 + 1 = 5<br><br><br><br></div>",,1,,,
,html-keyboard-response,70,1321622,0.0-2.0-0.3-2.20,2,1,2022-05-10 07:54:57,c659a6312084527fc8e3c63841c4439b,,"Mozilla/5.0 (Windows NT 10.0; Win64; x64) AppleWebKit/537.36 (KHTML, like Gecko) Chrome/101.0.4951.54 Safari/537.36 Edg/101.0.1210.39",WebKit,Edge,101.0.1210.39,Windows,10.0,7,2,a,,null, ,null,,,,
,operation-span-recall,71,1334167,0.0-2.0-1.3,2,1,2022-05-10 07:54:57,c659a6312084527fc8e3c63841c4439b,,"Mozilla/5.0 (Windows NT 10.0; Win64; x64) AppleWebKit/537.36 (KHTML, like Gecko) Chrome/101.0.4951.54 Safari/537.36 Edg/101.0.1210.39",WebKit,Edge,101.0.1210.39,Windows,10.0,7,2,a,,12538,,,1,"K,N,H,L,S","K,H,L,S",4
,instructions,72,1336207,0.0-2.0-2.3,2,1,2022-05-10 07:54:57,c659a6312084527fc8e3c63841c4439b,,"Mozilla/5.0 (Windows NT 10.0; Win64; x64) AppleWebKit/537.36 (KHTML, like Gecko) Chrome/101.0.4951.54 Safari/537.36 Edg/101.0.1210.39",WebKit,Edge,101.0.1210.39,Windows,10.0,7,2,a,"[{""page_index"":0,""viewing_time"":2038}]",2038,,,,,,
,html-keyboard-response,73,1337211,0.0-2.0-0.4-0.21,2,1,2022-05-10 07:54:57,c659a6312084527fc8e3c63841c4439b,,"Mozilla/5.0 (Windows NT 10.0; Win64; x64) AppleWebKit/537.36 (KHTML, like Gecko) Chrome/101.0.4951.54 Safari/537.36 Edg/101.0.1210.39",WebKit,Edge,101.0.1210.39,Windows,10.0,7,2,a,,null,"<div style=""font-size:70px;"">V<br><br><br><br></div>",null,,,,
,html-button-operationspan,74,1339991,0.0-2.0-0.4-1.21,2,1,2022-05-10 07:54:57,c659a6312084527fc8e3c63841c4439b,,"Mozilla/5.0 (Windows NT 10.0; Win64; x64) AppleWebKit/537.36 (KHTML, like Gecko) Chrome/101.0.4951.54 Safari/537.36 Edg/101.0.1210.39",WebKit,Edge,101.0.1210.39,Windows,10.0,7,2,a,,2777,"<div style=""font-size:46px;"">9 + 10 = 17<br><br><br><br></div>",,1,,,
,html-keyboard-response,75,1339995,0.0-2.0-0.4-2.21,2,1,2022-05-10 07:54:57,c659a6312084527fc8e3c63841c4439b,,"Mozilla/5.0 (Windows NT 10.0; Win64; x64) AppleWebKit/537.36 (KHTML, like Gecko) Chrome/101.0.4951.54 Safari/537.36 Edg/101.0.1210.39",WebKit,Edge,101.0.1210.39,Windows,10.0,7,2,a,,null, ,null,,,,
,html-keyboard-response,76,1341009,0.0-2.0-0.4-0.22,2,1,2022-05-10 07:54:57,c659a6312084527fc8e3c63841c4439b,,"Mozilla/5.0 (Windows NT 10.0; Win64; x64) AppleWebKit/537.36 (KHTML, like Gecko) Chrome/101.0.4951.54 Safari/537.36 Edg/101.0.1210.39",WebKit,Edge,101.0.1210.39,Windows,10.0,7,2,a,,null,"<div style=""font-size:70px;"">N<br><br><br><br></div>",null,,,,
,html-button-operationspan,77,1342511,0.0-2.0-0.4-1.22,2,1,2022-05-10 07:54:57,c659a6312084527fc8e3c63841c4439b,,"Mozilla/5.0 (Windows NT 10.0; Win64; x64) AppleWebKit/537.36 (KHTML, like Gecko) Chrome/101.0.4951.54 Safari/537.36 Edg/101.0.1210.39",WebKit,Edge,101.0.1210.39,Windows,10.0,7,2,a,,1499,"<div style=""font-size:46px;"">1 - 1 = 0<br><br><br><br></div>",,1,,,
,html-keyboard-response,78,1342514,0.0-2.0-0.4-2.22,2,1,2022-05-10 07:54:57,c659a6312084527fc8e3c63841c4439b,,"Mozilla/5.0 (Windows NT 10.0; Win64; x64) AppleWebKit/537.36 (KHTML, like Gecko) Chrome/101.0.4951.54 Safari/537.36 Edg/101.0.1210.39",WebKit,Edge,101.0.1210.39,Windows,10.0,7,2,a,,null, ,null,,,,
,html-keyboard-response,79,1343520,0.0-2.0-0.4-0.23,2,1,2022-05-10 07:54:57,c659a6312084527fc8e3c63841c4439b,,"Mozilla/5.0 (Windows NT 10.0; Win64; x64) AppleWebKit/537.36 (KHTML, like Gecko) Chrome/101.0.4951.54 Safari/537.36 Edg/101.0.1210.39",WebKit,Edge,101.0.1210.39,Windows,10.0,7,2,a,,null,"<div style=""font-size:70px;"">Q<br><br><br><br></div>",null,,,,
,html-button-operationspan,80,1345079,0.0-2.0-0.4-1.23,2,1,2022-05-10 07:54:57,c659a6312084527fc8e3c63841c4439b,,"Mozilla/5.0 (Windows NT 10.0; Win64; x64) AppleWebKit/537.36 (KHTML, like Gecko) Chrome/101.0.4951.54 Safari/537.36 Edg/101.0.1210.39",WebKit,Edge,101.0.1210.39,Windows,10.0,7,2,a,,1556,"<div style=""font-size:46px;"">4 - 2 = 2<br><br><br><br></div>",,1,,,
,html-keyboard-response,81,1345084,0.0-2.0-0.4-2.23,2,1,2022-05-10 07:54:57,c659a6312084527fc8e3c63841c4439b,,"Mozilla/5.0 (Windows NT 10.0; Win64; x64) AppleWebKit/537.36 (KHTML, like Gecko) Chrome/101.0.4951.54 Safari/537.36 Edg/101.0.1210.39",WebKit,Edge,101.0.1210.39,Windows,10.0,7,2,a,,null, ,null,,,,
,html-keyboard-response,82,1346101,0.0-2.0-0.4-0.24,2,1,2022-05-10 07:54:57,c659a6312084527fc8e3c63841c4439b,,"Mozilla/5.0 (Windows NT 10.0; Win64; x64) AppleWebKit/537.36 (KHTML, like Gecko) Chrome/101.0.4951.54 Safari/537.36 Edg/101.0.1210.39",WebKit,Edge,101.0.1210.39,Windows,10.0,7,2,a,,null,"<div style=""font-size:70px;"">R<br><br><br><br></div>",null,,,,
,html-button-operationspan,83,1347951,0.0-2.0-0.4-1.24,2,1,2022-05-10 07:54:57,c659a6312084527fc8e3c63841c4439b,,"Mozilla/5.0 (Windows NT 10.0; Win64; x64) AppleWebKit/537.36 (KHTML, like Gecko) Chrome/101.0.4951.54 Safari/537.36 Edg/101.0.1210.39",WebKit,Edge,101.0.1210.39,Windows,10.0,7,2,a,,1846,"<div style=""font-size:46px;"">2 + 6 = 10<br><br><br><br></div>",,1,,,
,html-keyboard-response,84,1347957,0.0-2.0-0.4-2.24,2,1,2022-05-10 07:54:57,c659a6312084527fc8e3c63841c4439b,,"Mozilla/5.0 (Windows NT 10.0; Win64; x64) AppleWebKit/537.36 (KHTML, like Gecko) Chrome/101.0.4951.54 Safari/537.36 Edg/101.0.1210.39",WebKit,Edge,101.0.1210.39,Windows,10.0,7,2,a,,null, ,null,,,,
,operation-span-recall,85,1355671,0.0-2.0-1.4,2,1,2022-05-10 07:54:57,c659a6312084527fc8e3c63841c4439b,,"Mozilla/5.0 (Windows NT 10.0; Win64; x64) AppleWebKit/537.36 (KHTML, like Gecko) Chrome/101.0.4951.54 Safari/537.36 Edg/101.0.1210.39",WebKit,Edge,101.0.1210.39,Windows,10.0,7,2,a,,7710,,,4,"V,N,Q,R","V,N,Q,R",4
,instructions,86,1356904,0.0-2.0-2.4,2,1,2022-05-10 07:54:57,c659a6312084527fc8e3c63841c4439b,,"Mozilla/5.0 (Windows NT 10.0; Win64; x64) AppleWebKit/537.36 (KHTML, like Gecko) Chrome/101.0.4951.54 Safari/537.36 Edg/101.0.1210.39",WebKit,Edge,101.0.1210.39,Windows,10.0,7,2,a,"[{""page_index"":0,""viewing_time"":1230}]",1231,,,,,,
,html-keyboard-response,87,1357915,0.0-2.0-0.5-0.25,2,1,2022-05-10 07:54:57,c659a6312084527fc8e3c63841c4439b,,"Mozilla/5.0 (Windows NT 10.0; Win64; x64) AppleWebKit/537.36 (KHTML, like Gecko) Chrome/101.0.4951.54 Safari/537.36 Edg/101.0.1210.39",WebKit,Edge,101.0.1210.39,Windows,10.0,7,2,a,,null,"<div style=""font-size:70px;"">J<br><br><br><br></div>",null,,,,
,html-button-operationspan,88,1361567,0.0-2.0-0.5-1.25,2,1,2022-05-10 07:54:57,c659a6312084527fc8e3c63841c4439b,,"Mozilla/5.0 (Windows NT 10.0; Win64; x64) AppleWebKit/537.36 (KHTML, like Gecko) Chrome/101.0.4951.54 Safari/537.36 Edg/101.0.1210.39",WebKit,Edge,101.0.1210.39,Windows,10.0,7,2,a,,3648,"<div style=""font-size:46px;"">6 - 4 = 2<br><br><br><br></div>",,1,,,
,html-keyboard-response,89,1361572,0.0-2.0-0.5-2.25,2,1,2022-05-10 07:54:57,c659a6312084527fc8e3c63841c4439b,,"Mozilla/5.0 (Windows NT 10.0; Win64; x64) AppleWebKit/537.36 (KHTML, like Gecko) Chrome/101.0.4951.54 Safari/537.36 Edg/101.0.1210.39",WebKit,Edge,101.0.1210.39,Windows,10.0,7,2,a,,null, ,null,,,,
,html-keyboard-response,90,1362583,0.0-2.0-0.5-0.26,2,1,2022-05-10 07:54:57,c659a6312084527fc8e3c63841c4439b,,"Mozilla/5.0 (Windows NT 10.0; Win64; x64) AppleWebKit/537.36 (KHTML, like Gecko) Chrome/101.0.4951.54 Safari/537.36 Edg/101.0.1210.39",WebKit,Edge,101.0.1210.39,Windows,10.0,7,2,a,,null,"<div style=""font-size:70px;"">H<br><br><br><br></div>",null,,,,
,html-button-operationspan,91,1364551,0.0-2.0-0.5-1.26,2,1,2022-05-10 07:54:57,c659a6312084527fc8e3c63841c4439b,,"Mozilla/5.0 (Windows NT 10.0; Win64; x64) AppleWebKit/537.36 (KHTML, like Gecko) Chrome/101.0.4951.54 Safari/537.36 Edg/101.0.1210.39",WebKit,Edge,101.0.1210.39,Windows,10.0,7,2,a,,1963,"<div style=""font-size:46px;"">3 + 2 = 5<br><br><br><br></div>",,1,,,
,html-keyboard-response,92,1364556,0.0-2.0-0.5-2.26,2,1,2022-05-10 07:54:57,c659a6312084527fc8e3c63841c4439b,,"Mozilla/5.0 (Windows NT 10.0; Win64; x64) AppleWebKit/537.36 (KHTML, like Gecko) Chrome/101.0.4951.54 Safari/537.36 Edg/101.0.1210.39",WebKit,Edge,101.0.1210.39,Windows,10.0,7,2,a,,null, ,null,,,,
,html-keyboard-response,93,1365563,0.0-2.0-0.5-0.27,2,1,2022-05-10 07:54:57,c659a6312084527fc8e3c63841c4439b,,"Mozilla/5.0 (Windows NT 10.0; Win64; x64) AppleWebKit/537.36 (KHTML, like Gecko) Chrome/101.0.4951.54 Safari/537.36 Edg/101.0.1210.39",WebKit,Edge,101.0.1210.39,Windows,10.0,7,2,a,,null,"<div style=""font-size:70px;"">T<br><br><br><br></div>",null,,,,
,html-button-operationspan,94,1367103,0.0-2.0-0.5-1.27,2,1,2022-05-10 07:54:57,c659a6312084527fc8e3c63841c4439b,,"Mozilla/5.0 (Windows NT 10.0; Win64; x64) AppleWebKit/537.36 (KHTML, like Gecko) Chrome/101.0.4951.54 Safari/537.36 Edg/101.0.1210.39",WebKit,Edge,101.0.1210.39,Windows,10.0,7,2,a,,1537,"<div style=""font-size:46px;"">2 + 3 = 5<br><br><br><br></div>",,1,,,
,html-keyboard-response,95,1367109,0.0-2.0-0.5-2.27,2,1,2022-05-10 07:54:57,c659a6312084527fc8e3c63841c4439b,,"Mozilla/5.0 (Windows NT 10.0; Win64; x64) AppleWebKit/537.36 (KHTML, like Gecko) Chrome/101.0.4951.54 Safari/537.36 Edg/101.0.1210.39",WebKit,Edge,101.0.1210.39,Windows,10.0,7,2,a,,null, ,null,,,,
,html-keyboard-response,96,1368125,0.0-2.0-0.5-0.28,2,1,2022-05-10 07:54:57,c659a6312084527fc8e3c63841c4439b,,"Mozilla/5.0 (Windows NT 10.0; Win64; x64) AppleWebKit/537.36 (KHTML, like Gecko) Chrome/101.0.4951.54 Safari/537.36 Edg/101.0.1210.39",WebKit,Edge,101.0.1210.39,Windows,10.0,7,2,a,,null,"<div style=""font-size:70px;"">R<br><br><br><br></div>",null,,,,
,html-button-operationspan,97,1370951,0.0-2.0-0.5-1.28,2,1,2022-05-10 07:54:57,c659a6312084527fc8e3c63841c4439b,,"Mozilla/5.0 (Windows NT 10.0; Win64; x64) AppleWebKit/537.36 (KHTML, like Gecko) Chrome/101.0.4951.54 Safari/537.36 Edg/101.0.1210.39",WebKit,Edge,101.0.1210.39,Windows,10.0,7,2,a,,2822,"<div style=""font-size:46px;"">3 + 8 = 11<br><br><br><br></div>",,1,,,
,html-keyboard-response,98,1370956,0.0-2.0-0.5-2.28,2,1,2022-05-10 07:54:57,c659a6312084527fc8e3c63841c4439b,,"Mozilla/5.0 (Windows NT 10.0; Win64; x64) AppleWebKit/537.36 (KHTML, like Gecko) Chrome/101.0.4951.54 Safari/537.36 Edg/101.0.1210.39",WebKit,Edge,101.0.1210.39,Windows,10.0,7,2,a,,null, ,null,,,,
,html-keyboard-response,99,1371963,0.0-2.0-0.5-0.29,2,1,2022-05-10 07:54:57,c659a6312084527fc8e3c63841c4439b,,"Mozilla/5.0 (Windows NT 10.0; Win64; x64) AppleWebKit/537.36 (KHTML, like Gecko) Chrome/101.0.4951.54 Safari/537.36 Edg/101.0.1210.39",WebKit,Edge,101.0.1210.39,Windows,10.0,7,2,a,,null,"<div style=""font-size:70px;"">V<br><br><br><br></div>",null,,,,
,html-button-operationspan,100,1373463,0.0-2.0-0.5-1.29,2,1,2022-05-10 07:54:57,c659a6312084527fc8e3c63841c4439b,,"Mozilla/5.0 (Windows NT 10.0; Win64; x64) AppleWebKit/537.36 (KHTML, like Gecko) Chrome/101.0.4951.54 Safari/537.36 Edg/101.0.1210.39",WebKit,Edge,101.0.1210.39,Windows,10.0,7,2,a,,1497,"<div style=""font-size:46px;"">5 - 1 = 2<br><br><br><br></div>",,1,,,
,html-keyboard-response,101,1373466,0.0-2.0-0.5-2.29,2,1,2022-05-10 07:54:57,c659a6312084527fc8e3c63841c4439b,,"Mozilla/5.0 (Windows NT 10.0; Win64; x64) AppleWebKit/537.36 (KHTML, like Gecko) Chrome/101.0.4951.54 Safari/537.36 Edg/101.0.1210.39",WebKit,Edge,101.0.1210.39,Windows,10.0,7,2,a,,null, ,null,,,,
,operation-span-recall,102,1384975,0.0-2.0-1.5,2,1,2022-05-10 07:54:57,c659a6312084527fc8e3c63841c4439b,,"Mozilla/5.0 (Windows NT 10.0; Win64; x64) AppleWebKit/537.36 (KHTML, like Gecko) Chrome/101.0.4951.54 Safari/537.36 Edg/101.0.1210.39",WebKit,Edge,101.0.1210.39,Windows,10.0,7,2,a,,11501,,,5,"J,H,T,R,V","J,H,T,R,V",5
,instructions,103,1386239,0.0-2.0-2.5,2,1,2022-05-10 07:54:57,c659a6312084527fc8e3c63841c4439b,,"Mozilla/5.0 (Windows NT 10.0; Win64; x64) AppleWebKit/537.36 (KHTML, like Gecko) Chrome/101.0.4951.54 Safari/537.36 Edg/101.0.1210.39",WebKit,Edge,101.0.1210.39,Windows,10.0,7,2,a,"[{""page_index"":0,""viewing_time"":1261}]",1261,,,,,,
true,fullscreen,104,1387243,0.0-3.0,2,1,2022-05-10 07:54:57,c659a6312084527fc8e3c63841c4439b,,"Mozilla/5.0 (Windows NT 10.0; Win64; x64) AppleWebKit/537.36 (KHTML, like Gecko) Chrome/101.0.4951.54 Safari/537.36 Edg/101.0.1210.39",WebKit,Edge,101.0.1210.39,Windows,10.0,7,2,a,,,,,,,,
,html-keyboard-response,105,1394071,0.0-4.0,2,1,2022-05-10 07:54:57,c659a6312084527fc8e3c63841c4439b,,"Mozilla/5.0 (Windows NT 10.0; Win64; x64) AppleWebKit/537.36 (KHTML, like Gecko) Chrome/101.0.4951.54 Safari/537.36 Edg/101.0.1210.39",WebKit,Edge,101.0.1210.39,Windows,10.0,7,2,a,,6825,"<div style=""font-size:20px;"">This task is over.<br><br>    Thank you for your participation in this task. <br><br>    Press space to end the task.</div>",32,,,,
