success,trial_type,trial_index,time_elapsed,internal_node_id,run_id,condition,recorded_at,source_code_version,ip,user_agent,device,browser,browser_version,platform,platform_version,subjectId,cond,bal,view_history,rt,stimulus,key_press,accuracy,recall,stimuli,set_size
true,fullscreen,0,2129121,0.0-0.0,11,1,2022-05-09 13:36:17,07e2e056772a877f89175bcd11545e20,,"Mozilla/5.0 (Windows NT 10.0; Win64; x64) AppleWebKit/537.36 (KHTML, like Gecko) Chrome/101.0.4951.54 Safari/537.36 Edg/101.0.1210.39",WebKit,Edge,101.0.1210.39,Windows,10.0,1,1,a,,,,,,,,
,instructions,1,2131997,0.0-1.0,11,1,2022-05-09 13:36:17,07e2e056772a877f89175bcd11545e20,,"Mozilla/5.0 (Windows NT 10.0; Win64; x64) AppleWebKit/537.36 (KHTML, like Gecko) Chrome/101.0.4951.54 Safari/537.36 Edg/101.0.1210.39",WebKit,Edge,101.0.1210.39,Windows,10.0,1,1,a,"[{""page_index"":0,""viewing_time"":2874}]",2874,,,,,,
,html-keyboard-response,2,2132999,0.0-2.0-0.0-0.0,11,1,2022-05-09 13:36:17,07e2e056772a877f89175bcd11545e20,,"Mozilla/5.0 (Windows NT 10.0; Win64; x64) AppleWebKit/537.36 (KHTML, like Gecko) Chrome/101.0.4951.54 Safari/537.36 Edg/101.0.1210.39",WebKit,Edge,101.0.1210.39,Windows,10.0,1,1,a,,null,"<div style=""font-size:70px;"">Q<br><br><br><br></div>",null,,,,
,html-button-operationspan,3,2135638,0.0-2.0-0.0-1.0,11,1,2022-05-09 13:36:17,07e2e056772a877f89175bcd11545e20,,"Mozilla/5.0 (Windows NT 10.0; Win64; x64) AppleWebKit/537.36 (KHTML, like Gecko) Chrome/101.0.4951.54 Safari/537.36 Edg/101.0.1210.39",WebKit,Edge,101.0.1210.39,Windows,10.0,1,1,a,,2635,"<div style=""font-size:46px;"">9 + 3 = 14<br><br><br><br></div>",,1,,,
,html-keyboard-response,4,2135641,0.0-2.0-0.0-2.0,11,1,2022-05-09 13:36:17,07e2e056772a877f89175bcd11545e20,,"Mozilla/5.0 (Windows NT 10.0; Win64; x64) AppleWebKit/537.36 (KHTML, like Gecko) Chrome/101.0.4951.54 Safari/537.36 Edg/101.0.1210.39",WebKit,Edge,101.0.1210.39,Windows,10.0,1,1,a,,null, ,null,,,,
,html-keyboard-response,5,2136656,0.0-2.0-0.0-0.1,11,1,2022-05-09 13:36:17,07e2e056772a877f89175bcd11545e20,,"Mozilla/5.0 (Windows NT 10.0; Win64; x64) AppleWebKit/537.36 (KHTML, like Gecko) Chrome/101.0.4951.54 Safari/537.36 Edg/101.0.1210.39",WebKit,Edge,101.0.1210.39,Windows,10.0,1,1,a,,null,"<div style=""font-size:70px;"">F<br><br><br><br></div>",null,,,,
,html-button-operationspan,6,2139054,0.0-2.0-0.0-1.1,11,1,2022-05-09 13:36:17,07e2e056772a877f89175bcd11545e20,,"Mozilla/5.0 (Windows NT 10.0; Win64; x64) AppleWebKit/537.36 (KHTML, like Gecko) Chrome/101.0.4951.54 Safari/537.36 Edg/101.0.1210.39",WebKit,Edge,101.0.1210.39,Windows,10.0,1,1,a,,2396,"<div style=""font-size:46px;"">4 - 1 = 2<br><br><br><br></div>",,1,,,
,html-keyboard-response,7,2139057,0.0-2.0-0.0-2.1,11,1,2022-05-09 13:36:17,07e2e056772a877f89175bcd11545e20,,"Mozilla/5.0 (Windows NT 10.0; Win64; x64) AppleWebKit/537.36 (KHTML, like Gecko) Chrome/101.0.4951.54 Safari/537.36 Edg/101.0.1210.39",WebKit,Edge,101.0.1210.39,Windows,10.0,1,1,a,,null, ,null,,,,
,html-keyboard-response,8,2140058,0.0-2.0-0.0-0.2,11,1,2022-05-09 13:36:17,07e2e056772a877f89175bcd11545e20,,"Mozilla/5.0 (Windows NT 10.0; Win64; x64) AppleWebKit/537.36 (KHTML, like Gecko) Chrome/101.0.4951.54 Safari/537.36 Edg/101.0.1210.39",WebKit,Edge,101.0.1210.39,Windows,10.0,1,1,a,,null,"<div style=""font-size:70px;"">T<br><br><br><br></div>",null,,,,
,html-button-operationspan,9,2142453,0.0-2.0-0.0-1.2,11,1,2022-05-09 13:36:17,07e2e056772a877f89175bcd11545e20,,"Mozilla/5.0 (Windows NT 10.0; Win64; x64) AppleWebKit/537.36 (KHTML, like Gecko) Chrome/101.0.4951.54 Safari/537.36 Edg/101.0.1210.39",WebKit,Edge,101.0.1210.39,Windows,10.0,1,1,a,,2394,"<div style=""font-size:46px;"">7 + 8 = 16<br><br><br><br></div>",,0,,,
,html-keyboard-response,10,2142456,0.0-2.0-0.0-2.2,11,1,2022-05-09 13:36:17,07e2e056772a877f89175bcd11545e20,,"Mozilla/5.0 (Windows NT 10.0; Win64; x64) AppleWebKit/537.36 (KHTML, like Gecko) Chrome/101.0.4951.54 Safari/537.36 Edg/101.0.1210.39",WebKit,Edge,101.0.1210.39,Windows,10.0,1,1,a,,null, ,null,,,,
,html-keyboard-response,11,2143472,0.0-2.0-0.0-0.3,11,1,2022-05-09 13:36:17,07e2e056772a877f89175bcd11545e20,,"Mozilla/5.0 (Windows NT 10.0; Win64; x64) AppleWebKit/537.36 (KHTML, like Gecko) Chrome/101.0.4951.54 Safari/537.36 Edg/101.0.1210.39",WebKit,Edge,101.0.1210.39,Windows,10.0,1,1,a,,null,"<div style=""font-size:70px;"">K<br><br><br><br></div>",null,,,,
,html-button-operationspan,12,2145109,0.0-2.0-0.0-1.3,11,1,2022-05-09 13:36:17,07e2e056772a877f89175bcd11545e20,,"Mozilla/5.0 (Windows NT 10.0; Win64; x64) AppleWebKit/537.36 (KHTML, like Gecko) Chrome/101.0.4951.54 Safari/537.36 Edg/101.0.1210.39",WebKit,Edge,101.0.1210.39,Windows,10.0,1,1,a,,1636,"<div style=""font-size:46px;"">5 + 4 = 9<br><br><br><br></div>",,1,,,
,html-keyboard-response,13,2145111,0.0-2.0-0.0-2.3,11,1,2022-05-09 13:36:17,07e2e056772a877f89175bcd11545e20,,"Mozilla/5.0 (Windows NT 10.0; Win64; x64) AppleWebKit/537.36 (KHTML, like Gecko) Chrome/101.0.4951.54 Safari/537.36 Edg/101.0.1210.39",WebKit,Edge,101.0.1210.39,Windows,10.0,1,1,a,,null, ,null,,,,
,html-keyboard-response,14,2146121,0.0-2.0-0.0-0.4,11,1,2022-05-09 13:36:17,07e2e056772a877f89175bcd11545e20,,"Mozilla/5.0 (Windows NT 10.0; Win64; x64) AppleWebKit/537.36 (KHTML, like Gecko) Chrome/101.0.4951.54 Safari/537.36 Edg/101.0.1210.39",WebKit,Edge,101.0.1210.39,Windows,10.0,1,1,a,,null,"<div style=""font-size:70px;"">H<br><br><br><br></div>",null,,,,
,html-button-operationspan,15,2148734,0.0-2.0-0.0-1.4,11,1,2022-05-09 13:36:17,07e2e056772a877f89175bcd11545e20,,"Mozilla/5.0 (Windows NT 10.0; Win64; x64) AppleWebKit/537.36 (KHTML, like Gecko) Chrome/101.0.4951.54 Safari/537.36 Edg/101.0.1210.39",WebKit,Edge,101.0.1210.39,Windows,10.0,1,1,a,,2612,"<div style=""font-size:46px;"">8 - 6 = 2<br><br><br><br></div>",,1,,,
,html-keyboard-response,16,2148737,0.0-2.0-0.0-2.4,11,1,2022-05-09 13:36:17,07e2e056772a877f89175bcd11545e20,,"Mozilla/5.0 (Windows NT 10.0; Win64; x64) AppleWebKit/537.36 (KHTML, like Gecko) Chrome/101.0.4951.54 Safari/537.36 Edg/101.0.1210.39",WebKit,Edge,101.0.1210.39,Windows,10.0,1,1,a,,null, ,null,,,,
,operation-span-recall,17,2155485,0.0-2.0-1.0,11,1,2022-05-09 13:36:17,07e2e056772a877f89175bcd11545e20,,"Mozilla/5.0 (Windows NT 10.0; Win64; x64) AppleWebKit/537.36 (KHTML, like Gecko) Chrome/101.0.4951.54 Safari/537.36 Edg/101.0.1210.39",WebKit,Edge,101.0.1210.39,Windows,10.0,1,1,a,,6745,,,2,"Q,F,K,H,J","Q,F,T,K,H",5
,instructions,18,2157549,0.0-2.0-2.0,11,1,2022-05-09 13:36:17,07e2e056772a877f89175bcd11545e20,,"Mozilla/5.0 (Windows NT 10.0; Win64; x64) AppleWebKit/537.36 (KHTML, like Gecko) Chrome/101.0.4951.54 Safari/537.36 Edg/101.0.1210.39",WebKit,Edge,101.0.1210.39,Windows,10.0,1,1,a,"[{""page_index"":0,""viewing_time"":2062}]",2062,,,,,,
,html-keyboard-response,19,2158564,0.0-2.0-0.1-0.5,11,1,2022-05-09 13:36:17,07e2e056772a877f89175bcd11545e20,,"Mozilla/5.0 (Windows NT 10.0; Win64; x64) AppleWebKit/537.36 (KHTML, like Gecko) Chrome/101.0.4951.54 Safari/537.36 Edg/101.0.1210.39",WebKit,Edge,101.0.1210.39,Windows,10.0,1,1,a,,null,"<div style=""font-size:70px;"">R<br><br><br><br></div>",null,,,,
,html-button-operationspan,20,2160677,0.0-2.0-0.1-1.5,11,1,2022-05-09 13:36:17,07e2e056772a877f89175bcd11545e20,,"Mozilla/5.0 (Windows NT 10.0; Win64; x64) AppleWebKit/537.36 (KHTML, like Gecko) Chrome/101.0.4951.54 Safari/537.36 Edg/101.0.1210.39",WebKit,Edge,101.0.1210.39,Windows,10.0,1,1,a,,2112,"<div style=""font-size:46px;"">2 - 1 = 3<br><br><br><br></div>",,1,,,
,html-keyboard-response,21,2160681,0.0-2.0-0.1-2.5,11,1,2022-05-09 13:36:17,07e2e056772a877f89175bcd11545e20,,"Mozilla/5.0 (Windows NT 10.0; Win64; x64) AppleWebKit/537.36 (KHTML, like Gecko) Chrome/101.0.4951.54 Safari/537.36 Edg/101.0.1210.39",WebKit,Edge,101.0.1210.39,Windows,10.0,1,1,a,,null, ,null,,,,
,html-keyboard-response,22,2161687,0.0-2.0-0.1-0.6,11,1,2022-05-09 13:36:17,07e2e056772a877f89175bcd11545e20,,"Mozilla/5.0 (Windows NT 10.0; Win64; x64) AppleWebKit/537.36 (KHTML, like Gecko) Chrome/101.0.4951.54 Safari/537.36 Edg/101.0.1210.39",WebKit,Edge,101.0.1210.39,Windows,10.0,1,1,a,,null,"<div style=""font-size:70px;"">J<br><br><br><br></div>",null,,,,
,html-button-operationspan,23,2163805,0.0-2.0-0.1-1.6,11,1,2022-05-09 13:36:17,07e2e056772a877f89175bcd11545e20,,"Mozilla/5.0 (Windows NT 10.0; Win64; x64) AppleWebKit/537.36 (KHTML, like Gecko) Chrome/101.0.4951.54 Safari/537.36 Edg/101.0.1210.39",WebKit,Edge,101.0.1210.39,Windows,10.0,1,1,a,,2117,"<div style=""font-size:46px;"">2 + 6 = 7<br><br><br><br></div>",,0,,,
,html-keyboard-response,24,2163808,0.0-2.0-0.1-2.6,11,1,2022-05-09 13:36:17,07e2e056772a877f89175bcd11545e20,,"Mozilla/5.0 (Windows NT 10.0; Win64; x64) AppleWebKit/537.36 (KHTML, like Gecko) Chrome/101.0.4951.54 Safari/537.36 Edg/101.0.1210.39",WebKit,Edge,101.0.1210.39,Windows,10.0,1,1,a,,null, ,null,,,,
,html-keyboard-response,25,2164817,0.0-2.0-0.1-0.7,11,1,2022-05-09 13:36:17,07e2e056772a877f89175bcd11545e20,,"Mozilla/5.0 (Windows NT 10.0; Win64; x64) AppleWebKit/537.36 (KHTML, like Gecko) Chrome/101.0.4951.54 Safari/537.36 Edg/101.0.1210.39",WebKit,Edge,101.0.1210.39,Windows,10.0,1,1,a,,null,"<div style=""font-size:70px;"">P<br><br><br><br></div>",null,,,,
,html-button-operationspan,26,2166597,0.0-2.0-0.1-1.7,11,1,2022-05-09 13:36:17,07e2e056772a877f89175bcd11545e20,,"Mozilla/5.0 (Windows NT 10.0; Win64; x64) AppleWebKit/537.36 (KHTML, like Gecko) Chrome/101.0.4951.54 Safari/537.36 Edg/101.0.1210.39",WebKit,Edge,101.0.1210.39,Windows,10.0,1,1,a,,1779,"<div style=""font-size:46px;"">5 - 2 = 3<br><br><br><br></div>",,1,,,
,html-keyboard-response,27,2166600,0.0-2.0-0.1-2.7,11,1,2022-05-09 13:36:17,07e2e056772a877f89175bcd11545e20,,"Mozilla/5.0 (Windows NT 10.0; Win64; x64) AppleWebKit/537.36 (KHTML, like Gecko) Chrome/101.0.4951.54 Safari/537.36 Edg/101.0.1210.39",WebKit,Edge,101.0.1210.39,Windows,10.0,1,1,a,,null, ,null,,,,
,html-keyboard-response,28,2167617,0.0-2.0-0.1-0.8,11,1,2022-05-09 13:36:17,07e2e056772a877f89175bcd11545e20,,"Mozilla/5.0 (Windows NT 10.0; Win64; x64) AppleWebKit/537.36 (KHTML, like Gecko) Chrome/101.0.4951.54 Safari/537.36 Edg/101.0.1210.39",WebKit,Edge,101.0.1210.39,Windows,10.0,1,1,a,,null,"<div style=""font-size:70px;"">V<br><br><br><br></div>",null,,,,
,html-button-operationspan,29,2168957,0.0-2.0-0.1-1.8,11,1,2022-05-09 13:36:17,07e2e056772a877f89175bcd11545e20,,"Mozilla/5.0 (Windows NT 10.0; Win64; x64) AppleWebKit/537.36 (KHTML, like Gecko) Chrome/101.0.4951.54 Safari/537.36 Edg/101.0.1210.39",WebKit,Edge,101.0.1210.39,Windows,10.0,1,1,a,,1338,"<div style=""font-size:46px;"">10 + 5 = 16<br><br><br><br></div>",,1,,,
,html-keyboard-response,30,2168961,0.0-2.0-0.1-2.8,11,1,2022-05-09 13:36:17,07e2e056772a877f89175bcd11545e20,,"Mozilla/5.0 (Windows NT 10.0; Win64; x64) AppleWebKit/537.36 (KHTML, like Gecko) Chrome/101.0.4951.54 Safari/537.36 Edg/101.0.1210.39",WebKit,Edge,101.0.1210.39,Windows,10.0,1,1,a,,null, ,null,,,,
,html-keyboard-response,31,2169970,0.0-2.0-0.1-0.9,11,1,2022-05-09 13:36:17,07e2e056772a877f89175bcd11545e20,,"Mozilla/5.0 (Windows NT 10.0; Win64; x64) AppleWebKit/537.36 (KHTML, like Gecko) Chrome/101.0.4951.54 Safari/537.36 Edg/101.0.1210.39",WebKit,Edge,101.0.1210.39,Windows,10.0,1,1,a,,null,"<div style=""font-size:70px;"">N<br><br><br><br></div>",null,,,,
,html-button-operationspan,32,2171726,0.0-2.0-0.1-1.9,11,1,2022-05-09 13:36:17,07e2e056772a877f89175bcd11545e20,,"Mozilla/5.0 (Windows NT 10.0; Win64; x64) AppleWebKit/537.36 (KHTML, like Gecko) Chrome/101.0.4951.54 Safari/537.36 Edg/101.0.1210.39",WebKit,Edge,101.0.1210.39,Windows,10.0,1,1,a,,1754,"<div style=""font-size:46px;"">2 + 7 = 8<br><br><br><br></div>",,1,,,
,html-keyboard-response,33,2171729,0.0-2.0-0.1-2.9,11,1,2022-05-09 13:36:17,07e2e056772a877f89175bcd11545e20,,"Mozilla/5.0 (Windows NT 10.0; Win64; x64) AppleWebKit/537.36 (KHTML, like Gecko) Chrome/101.0.4951.54 Safari/537.36 Edg/101.0.1210.39",WebKit,Edge,101.0.1210.39,Windows,10.0,1,1,a,,null, ,null,,,,
,html-keyboard-response,34,2172731,0.0-2.0-0.1-0.10,11,1,2022-05-09 13:36:17,07e2e056772a877f89175bcd11545e20,,"Mozilla/5.0 (Windows NT 10.0; Win64; x64) AppleWebKit/537.36 (KHTML, like Gecko) Chrome/101.0.4951.54 Safari/537.36 Edg/101.0.1210.39",WebKit,Edge,101.0.1210.39,Windows,10.0,1,1,a,,null,"<div style=""font-size:70px;"">T<br><br><br><br></div>",null,,,,
,html-button-operationspan,35,2174886,0.0-2.0-0.1-1.10,11,1,2022-05-09 13:36:17,07e2e056772a877f89175bcd11545e20,,"Mozilla/5.0 (Windows NT 10.0; Win64; x64) AppleWebKit/537.36 (KHTML, like Gecko) Chrome/101.0.4951.54 Safari/537.36 Edg/101.0.1210.39",WebKit,Edge,101.0.1210.39,Windows,10.0,1,1,a,,2152,"<div style=""font-size:46px;"">9 + 2 = 11<br><br><br><br></div>",,1,,,
,html-keyboard-response,36,2174890,0.0-2.0-0.1-2.10,11,1,2022-05-09 13:36:17,07e2e056772a877f89175bcd11545e20,,"Mozilla/5.0 (Windows NT 10.0; Win64; x64) AppleWebKit/537.36 (KHTML, like Gecko) Chrome/101.0.4951.54 Safari/537.36 Edg/101.0.1210.39",WebKit,Edge,101.0.1210.39,Windows,10.0,1,1,a,,null, ,null,,,,
,operation-span-recall,37,2183581,0.0-2.0-1.1,11,1,2022-05-09 13:36:17,07e2e056772a877f89175bcd11545e20,,"Mozilla/5.0 (Windows NT 10.0; Win64; x64) AppleWebKit/537.36 (KHTML, like Gecko) Chrome/101.0.4951.54 Safari/537.36 Edg/101.0.1210.39",WebKit,Edge,101.0.1210.39,Windows,10.0,1,1,a,,8687,,,2,"R,J,T,P,V","R,J,P,V,N,T",6
,instructions,38,2185198,0.0-2.0-2.1,11,1,2022-05-09 13:36:17,07e2e056772a877f89175bcd11545e20,,"Mozilla/5.0 (Windows NT 10.0; Win64; x64) AppleWebKit/537.36 (KHTML, like Gecko) Chrome/101.0.4951.54 Safari/537.36 Edg/101.0.1210.39",WebKit,Edge,101.0.1210.39,Windows,10.0,1,1,a,"[{""page_index"":0,""viewing_time"":1614}]",1615,,,,,,
,html-keyboard-response,39,2186210,0.0-2.0-0.2-0.11,11,1,2022-05-09 13:36:17,07e2e056772a877f89175bcd11545e20,,"Mozilla/5.0 (Windows NT 10.0; Win64; x64) AppleWebKit/537.36 (KHTML, like Gecko) Chrome/101.0.4951.54 Safari/537.36 Edg/101.0.1210.39",WebKit,Edge,101.0.1210.39,Windows,10.0,1,1,a,,null,"<div style=""font-size:70px;"">R<br><br><br><br></div>",null,,,,
,html-button-operationspan,40,2187502,0.0-2.0-0.2-1.11,11,1,2022-05-09 13:36:17,07e2e056772a877f89175bcd11545e20,,"Mozilla/5.0 (Windows NT 10.0; Win64; x64) AppleWebKit/537.36 (KHTML, like Gecko) Chrome/101.0.4951.54 Safari/537.36 Edg/101.0.1210.39",WebKit,Edge,101.0.1210.39,Windows,10.0,1,1,a,,1291,"<div style=""font-size:46px;"">7 - 1 = 6<br><br><br><br></div>",,1,,,
,html-keyboard-response,41,2187506,0.0-2.0-0.2-2.11,11,1,2022-05-09 13:36:17,07e2e056772a877f89175bcd11545e20,,"Mozilla/5.0 (Windows NT 10.0; Win64; x64) AppleWebKit/537.36 (KHTML, like Gecko) Chrome/101.0.4951.54 Safari/537.36 Edg/101.0.1210.39",WebKit,Edge,101.0.1210.39,Windows,10.0,1,1,a,,null, ,null,,,,
,html-keyboard-response,42,2188523,0.0-2.0-0.2-0.12,11,1,2022-05-09 13:36:17,07e2e056772a877f89175bcd11545e20,,"Mozilla/5.0 (Windows NT 10.0; Win64; x64) AppleWebKit/537.36 (KHTML, like Gecko) Chrome/101.0.4951.54 Safari/537.36 Edg/101.0.1210.39",WebKit,Edge,101.0.1210.39,Windows,10.0,1,1,a,,null,"<div style=""font-size:70px;"">P<br><br><br><br></div>",null,,,,
,html-button-operationspan,43,2191046,0.0-2.0-0.2-1.12,11,1,2022-05-09 13:36:17,07e2e056772a877f89175bcd11545e20,,"Mozilla/5.0 (Windows NT 10.0; Win64; x64) AppleWebKit/537.36 (KHTML, like Gecko) Chrome/101.0.4951.54 Safari/537.36 Edg/101.0.1210.39",WebKit,Edge,101.0.1210.39,Windows,10.0,1,1,a,,2521,"<div style=""font-size:46px;"">9 - 2 = 7<br><br><br><br></div>",,1,,,
,html-keyboard-response,44,2191048,0.0-2.0-0.2-2.12,11,1,2022-05-09 13:36:17,07e2e056772a877f89175bcd11545e20,,"Mozilla/5.0 (Windows NT 10.0; Win64; x64) AppleWebKit/537.36 (KHTML, like Gecko) Chrome/101.0.4951.54 Safari/537.36 Edg/101.0.1210.39",WebKit,Edge,101.0.1210.39,Windows,10.0,1,1,a,,null, ,null,,,,
,html-keyboard-response,45,2192057,0.0-2.0-0.2-0.13,11,1,2022-05-09 13:36:17,07e2e056772a877f89175bcd11545e20,,"Mozilla/5.0 (Windows NT 10.0; Win64; x64) AppleWebKit/537.36 (KHTML, like Gecko) Chrome/101.0.4951.54 Safari/537.36 Edg/101.0.1210.39",WebKit,Edge,101.0.1210.39,Windows,10.0,1,1,a,,null,"<div style=""font-size:70px;"">J<br><br><br><br></div>",null,,,,
,html-button-operationspan,46,2194462,0.0-2.0-0.2-1.13,11,1,2022-05-09 13:36:17,07e2e056772a877f89175bcd11545e20,,"Mozilla/5.0 (Windows NT 10.0; Win64; x64) AppleWebKit/537.36 (KHTML, like Gecko) Chrome/101.0.4951.54 Safari/537.36 Edg/101.0.1210.39",WebKit,Edge,101.0.1210.39,Windows,10.0,1,1,a,,2402,"<div style=""font-size:46px;"">5 - 4 = 2<br><br><br><br></div>",,1,,,
,html-keyboard-response,47,2194464,0.0-2.0-0.2-2.13,11,1,2022-05-09 13:36:17,07e2e056772a877f89175bcd11545e20,,"Mozilla/5.0 (Windows NT 10.0; Win64; x64) AppleWebKit/537.36 (KHTML, like Gecko) Chrome/101.0.4951.54 Safari/537.36 Edg/101.0.1210.39",WebKit,Edge,101.0.1210.39,Windows,10.0,1,1,a,,null, ,null,,,,
,html-keyboard-response,48,2195475,0.0-2.0-0.2-0.14,11,1,2022-05-09 13:36:17,07e2e056772a877f89175bcd11545e20,,"Mozilla/5.0 (Windows NT 10.0; Win64; x64) AppleWebKit/537.36 (KHTML, like Gecko) Chrome/101.0.4951.54 Safari/537.36 Edg/101.0.1210.39",WebKit,Edge,101.0.1210.39,Windows,10.0,1,1,a,,null,"<div style=""font-size:70px;"">Q<br><br><br><br></div>",null,,,,
,html-button-operationspan,49,2196726,0.0-2.0-0.2-1.14,11,1,2022-05-09 13:36:17,07e2e056772a877f89175bcd11545e20,,"Mozilla/5.0 (Windows NT 10.0; Win64; x64) AppleWebKit/537.36 (KHTML, like Gecko) Chrome/101.0.4951.54 Safari/537.36 Edg/101.0.1210.39",WebKit,Edge,101.0.1210.39,Windows,10.0,1,1,a,,1248,"<div style=""font-size:46px;"">9 - 1 = 8<br><br><br><br></div>",,1,,,
,html-keyboard-response,50,2196730,0.0-2.0-0.2-2.14,11,1,2022-05-09 13:36:17,07e2e056772a877f89175bcd11545e20,,"Mozilla/5.0 (Windows NT 10.0; Win64; x64) AppleWebKit/537.36 (KHTML, like Gecko) Chrome/101.0.4951.54 Safari/537.36 Edg/101.0.1210.39",WebKit,Edge,101.0.1210.39,Windows,10.0,1,1,a,,null, ,null,,,,
,operation-span-recall,51,2200709,0.0-2.0-1.2,11,1,2022-05-09 13:36:17,07e2e056772a877f89175bcd11545e20,,"Mozilla/5.0 (Windows NT 10.0; Win64; x64) AppleWebKit/537.36 (KHTML, like Gecko) Chrome/101.0.4951.54 Safari/537.36 Edg/101.0.1210.39",WebKit,Edge,101.0.1210.39,Windows,10.0,1,1,a,,3974,,,3,"R,P,V,Q","R,P,J,Q",4
,instructions,52,2203352,0.0-2.0-2.2,11,1,2022-05-09 13:36:17,07e2e056772a877f89175bcd11545e20,,"Mozilla/5.0 (Windows NT 10.0; Win64; x64) AppleWebKit/537.36 (KHTML, like Gecko) Chrome/101.0.4951.54 Safari/537.36 Edg/101.0.1210.39",WebKit,Edge,101.0.1210.39,Windows,10.0,1,1,a,"[{""page_index"":0,""viewing_time"":2641}]",2642,,,,,,
,html-keyboard-response,53,2204367,0.0-2.0-0.3-0.15,11,1,2022-05-09 13:36:17,07e2e056772a877f89175bcd11545e20,,"Mozilla/5.0 (Windows NT 10.0; Win64; x64) AppleWebKit/537.36 (KHTML, like Gecko) Chrome/101.0.4951.54 Safari/537.36 Edg/101.0.1210.39",WebKit,Edge,101.0.1210.39,Windows,10.0,1,1,a,,null,"<div style=""font-size:70px;"">T<br><br><br><br></div>",null,,,,
,html-button-operationspan,54,2206622,0.0-2.0-0.3-1.15,11,1,2022-05-09 13:36:17,07e2e056772a877f89175bcd11545e20,,"Mozilla/5.0 (Windows NT 10.0; Win64; x64) AppleWebKit/537.36 (KHTML, like Gecko) Chrome/101.0.4951.54 Safari/537.36 Edg/101.0.1210.39",WebKit,Edge,101.0.1210.39,Windows,10.0,1,1,a,,2251,"<div style=""font-size:46px;"">1 - 1 = 2<br><br><br><br></div>",,1,,,
,html-keyboard-response,55,2206624,0.0-2.0-0.3-2.15,11,1,2022-05-09 13:36:17,07e2e056772a877f89175bcd11545e20,,"Mozilla/5.0 (Windows NT 10.0; Win64; x64) AppleWebKit/537.36 (KHTML, like Gecko) Chrome/101.0.4951.54 Safari/537.36 Edg/101.0.1210.39",WebKit,Edge,101.0.1210.39,Windows,10.0,1,1,a,,null, ,null,,,,
,html-keyboard-response,56,2207636,0.0-2.0-0.3-0.16,11,1,2022-05-09 13:36:17,07e2e056772a877f89175bcd11545e20,,"Mozilla/5.0 (Windows NT 10.0; Win64; x64) AppleWebKit/537.36 (KHTML, like Gecko) Chrome/101.0.4951.54 Safari/537.36 Edg/101.0.1210.39",WebKit,Edge,101.0.1210.39,Windows,10.0,1,1,a,,null,"<div style=""font-size:70px;"">V<br><br><br><br></div>",null,,,,
,html-button-operationspan,57,2211406,0.0-2.0-0.3-1.16,11,1,2022-05-09 13:36:17,07e2e056772a877f89175bcd11545e20,,"Mozilla/5.0 (Windows NT 10.0; Win64; x64) AppleWebKit/537.36 (KHTML, like Gecko) Chrome/101.0.4951.54 Safari/537.36 Edg/101.0.1210.39",WebKit,Edge,101.0.1210.39,Windows,10.0,1,1,a,,3767,"<div style=""font-size:46px;"">8 - 5 = 3<br><br><br><br></div>",,1,,,
,html-keyboard-response,58,2211410,0.0-2.0-0.3-2.16,11,1,2022-05-09 13:36:17,07e2e056772a877f89175bcd11545e20,,"Mozilla/5.0 (Windows NT 10.0; Win64; x64) AppleWebKit/537.36 (KHTML, like Gecko) Chrome/101.0.4951.54 Safari/537.36 Edg/101.0.1210.39",WebKit,Edge,101.0.1210.39,Windows,10.0,1,1,a,,null, ,null,,,,
,html-keyboard-response,59,2212417,0.0-2.0-0.3-0.17,11,1,2022-05-09 13:36:17,07e2e056772a877f89175bcd11545e20,,"Mozilla/5.0 (Windows NT 10.0; Win64; x64) AppleWebKit/537.36 (KHTML, like Gecko) Chrome/101.0.4951.54 Safari/537.36 Edg/101.0.1210.39",WebKit,Edge,101.0.1210.39,Windows,10.0,1,1,a,,null,"<div style=""font-size:70px;"">R<br><br><br><br></div>",null,,,,
,html-button-operationspan,60,2216766,0.0-2.0-0.3-1.17,11,1,2022-05-09 13:36:17,07e2e056772a877f89175bcd11545e20,,"Mozilla/5.0 (Windows NT 10.0; Win64; x64) AppleWebKit/537.36 (KHTML, like Gecko) Chrome/101.0.4951.54 Safari/537.36 Edg/101.0.1210.39",WebKit,Edge,101.0.1210.39,Windows,10.0,1,1,a,,4345,"<div style=""font-size:46px;"">1 + 4 = 5<br><br><br><br></div>",,1,,,
,html-keyboard-response,61,2216771,0.0-2.0-0.3-2.17,11,1,2022-05-09 13:36:17,07e2e056772a877f89175bcd11545e20,,"Mozilla/5.0 (Windows NT 10.0; Win64; x64) AppleWebKit/537.36 (KHTML, like Gecko) Chrome/101.0.4951.54 Safari/537.36 Edg/101.0.1210.39",WebKit,Edge,101.0.1210.39,Windows,10.0,1,1,a,,null, ,null,,,,
,html-keyboard-response,62,2217773,0.0-2.0-0.3-0.18,11,1,2022-05-09 13:36:17,07e2e056772a877f89175bcd11545e20,,"Mozilla/5.0 (Windows NT 10.0; Win64; x64) AppleWebKit/537.36 (KHTML, like Gecko) Chrome/101.0.4951.54 Safari/537.36 Edg/101.0.1210.39",WebKit,Edge,101.0.1210.39,Windows,10.0,1,1,a,,null,"<div style=""font-size:70px;"">L<br><br><br><br></div>",null,,,,
,html-button-operationspan,63,2219982,0.0-2.0-0.3-1.18,11,1,2022-05-09 13:36:17,07e2e056772a877f89175bcd11545e20,,"Mozilla/5.0 (Windows NT 10.0; Win64; x64) AppleWebKit/537.36 (KHTML, like Gecko) Chrome/101.0.4951.54 Safari/537.36 Edg/101.0.1210.39",WebKit,Edge,101.0.1210.39,Windows,10.0,1,1,a,,2205,"<div style=""font-size:46px;"">2 + 6 = 7<br><br><br><br></div>",,1,,,
,html-keyboard-response,64,2219987,0.0-2.0-0.3-2.18,11,1,2022-05-09 13:36:17,07e2e056772a877f89175bcd11545e20,,"Mozilla/5.0 (Windows NT 10.0; Win64; x64) AppleWebKit/537.36 (KHTML, like Gecko) Chrome/101.0.4951.54 Safari/537.36 Edg/101.0.1210.39",WebKit,Edge,101.0.1210.39,Windows,10.0,1,1,a,,null, ,null,,,,
,operation-span-recall,65,2227461,0.0-2.0-1.3,11,1,2022-05-09 13:36:17,07e2e056772a877f89175bcd11545e20,,"Mozilla/5.0 (Windows NT 10.0; Win64; x64) AppleWebKit/537.36 (KHTML, like Gecko) Chrome/101.0.4951.54 Safari/537.36 Edg/101.0.1210.39",WebKit,Edge,101.0.1210.39,Windows,10.0,1,1,a,,7469,,,1,"R,P,V,L","T,V,R,L",4
,instructions,66,2228966,0.0-2.0-2.3,11,1,2022-05-09 13:36:17,07e2e056772a877f89175bcd11545e20,,"Mozilla/5.0 (Windows NT 10.0; Win64; x64) AppleWebKit/537.36 (KHTML, like Gecko) Chrome/101.0.4951.54 Safari/537.36 Edg/101.0.1210.39",WebKit,Edge,101.0.1210.39,Windows,10.0,1,1,a,"[{""page_index"":0,""viewing_time"":1503}]",1504,,,,,,
,html-keyboard-response,67,2229973,0.0-2.0-0.4-0.19,11,1,2022-05-09 13:36:17,07e2e056772a877f89175bcd11545e20,,"Mozilla/5.0 (Windows NT 10.0; Win64; x64) AppleWebKit/537.36 (KHTML, like Gecko) Chrome/101.0.4951.54 Safari/537.36 Edg/101.0.1210.39",WebKit,Edge,101.0.1210.39,Windows,10.0,1,1,a,,null,"<div style=""font-size:70px;"">Q<br><br><br><br></div>",null,,,,
,html-button-operationspan,68,2232198,0.0-2.0-0.4-1.19,11,1,2022-05-09 13:36:17,07e2e056772a877f89175bcd11545e20,,"Mozilla/5.0 (Windows NT 10.0; Win64; x64) AppleWebKit/537.36 (KHTML, like Gecko) Chrome/101.0.4951.54 Safari/537.36 Edg/101.0.1210.39",WebKit,Edge,101.0.1210.39,Windows,10.0,1,1,a,,2223,"<div style=""font-size:46px;"">7 - 3 = 5<br><br><br><br></div>",,1,,,
,html-keyboard-response,69,2232202,0.0-2.0-0.4-2.19,11,1,2022-05-09 13:36:17,07e2e056772a877f89175bcd11545e20,,"Mozilla/5.0 (Windows NT 10.0; Win64; x64) AppleWebKit/537.36 (KHTML, like Gecko) Chrome/101.0.4951.54 Safari/537.36 Edg/101.0.1210.39",WebKit,Edge,101.0.1210.39,Windows,10.0,1,1,a,,null, ,null,,,,
,html-keyboard-response,70,2233209,0.0-2.0-0.4-0.20,11,1,2022-05-09 13:36:17,07e2e056772a877f89175bcd11545e20,,"Mozilla/5.0 (Windows NT 10.0; Win64; x64) AppleWebKit/537.36 (KHTML, like Gecko) Chrome/101.0.4951.54 Safari/537.36 Edg/101.0.1210.39",WebKit,Edge,101.0.1210.39,Windows,10.0,1,1,a,,null,"<div style=""font-size:70px;"">L<br><br><br><br></div>",null,,,,
,html-button-operationspan,71,2236174,0.0-2.0-0.4-1.20,11,1,2022-05-09 13:36:17,07e2e056772a877f89175bcd11545e20,,"Mozilla/5.0 (Windows NT 10.0; Win64; x64) AppleWebKit/537.36 (KHTML, like Gecko) Chrome/101.0.4951.54 Safari/537.36 Edg/101.0.1210.39",WebKit,Edge,101.0.1210.39,Windows,10.0,1,1,a,,2962,"<div style=""font-size:46px;"">4 - 1 = 2<br><br><br><br></div>",,1,,,
,html-keyboard-response,72,2236177,0.0-2.0-0.4-2.20,11,1,2022-05-09 13:36:17,07e2e056772a877f89175bcd11545e20,,"Mozilla/5.0 (Windows NT 10.0; Win64; x64) AppleWebKit/537.36 (KHTML, like Gecko) Chrome/101.0.4951.54 Safari/537.36 Edg/101.0.1210.39",WebKit,Edge,101.0.1210.39,Windows,10.0,1,1,a,,null, ,null,,,,
,html-keyboard-response,73,2237179,0.0-2.0-0.4-0.21,11,1,2022-05-09 13:36:17,07e2e056772a877f89175bcd11545e20,,"Mozilla/5.0 (Windows NT 10.0; Win64; x64) AppleWebKit/537.36 (KHTML, like Gecko) Chrome/101.0.4951.54 Safari/537.36 Edg/101.0.1210.39",WebKit,Edge,101.0.1210.39,Windows,10.0,1,1,a,,null,"<div style=""font-size:70px;"">P<br><br><br><br></div>",null,,,,
,html-button-operationspan,74,2239303,0.0-2.0-0.4-1.21,11,1,2022-05-09 13:36:17,07e2e056772a877f89175bcd11545e20,,"Mozilla/5.0 (Windows NT 10.0; Win64; x64) AppleWebKit/537.36 (KHTML, like Gecko) Chrome/101.0.4951.54 Safari/537.36 Edg/101.0.1210.39",WebKit,Edge,101.0.1210.39,Windows,10.0,1,1,a,,2121,"<div style=""font-size:46px;"">5 - 1 = 6<br><br><br><br></div>",,1,,,
,html-keyboard-response,75,2239308,0.0-2.0-0.4-2.21,11,1,2022-05-09 13:36:17,07e2e056772a877f89175bcd11545e20,,"Mozilla/5.0 (Windows NT 10.0; Win64; x64) AppleWebKit/537.36 (KHTML, like Gecko) Chrome/101.0.4951.54 Safari/537.36 Edg/101.0.1210.39",WebKit,Edge,101.0.1210.39,Windows,10.0,1,1,a,,null, ,null,,,,
,html-keyboard-response,76,2240309,0.0-2.0-0.4-0.22,11,1,2022-05-09 13:36:17,07e2e056772a877f89175bcd11545e20,,"Mozilla/5.0 (Windows NT 10.0; Win64; x64) AppleWebKit/537.36 (KHTML, like Gecko) Chrome/101.0.4951.54 Safari/537.36 Edg/101.0.1210.39",WebKit,Edge,101.0.1210.39,Windows,10.0,1,1,a,,null,"<div style=""font-size:70px;"">S<br><br><br><br></div>",null,,,,
,html-button-operationspan,77,2243070,0.0-2.0-0.4-1.22,11,1,2022-05-09 13:36:17,07e2e056772a877f89175bcd11545e20,,"Mozilla/5.0 (Windows NT 10.0; Win64; x64) AppleWebKit/537.36 (KHTML, like Gecko) Chrome/101.0.4951.54 Safari/537.36 Edg/101.0.1210.39",WebKit,Edge,101.0.1210.39,Windows,10.0,1,1,a,,2758,"<div style=""font-size:46px;"">4 - 3 = 3<br><br><br><br></div>",,1,,,
,html-keyboard-response,78,2243074,0.0-2.0-0.4-2.22,11,1,2022-05-09 13:36:17,07e2e056772a877f89175bcd11545e20,,"Mozilla/5.0 (Windows NT 10.0; Win64; x64) AppleWebKit/537.36 (KHTML, like Gecko) Chrome/101.0.4951.54 Safari/537.36 Edg/101.0.1210.39",WebKit,Edge,101.0.1210.39,Windows,10.0,1,1,a,,null, ,null,,,,
,html-keyboard-response,79,2244087,0.0-2.0-0.4-0.23,11,1,2022-05-09 13:36:17,07e2e056772a877f89175bcd11545e20,,"Mozilla/5.0 (Windows NT 10.0; Win64; x64) AppleWebKit/537.36 (KHTML, like Gecko) Chrome/101.0.4951.54 Safari/537.36 Edg/101.0.1210.39",WebKit,Edge,101.0.1210.39,Windows,10.0,1,1,a,,null,"<div style=""font-size:70px;"">T<br><br><br><br></div>",null,,,,
,html-button-operationspan,80,2246526,0.0-2.0-0.4-1.23,11,1,2022-05-09 13:36:17,07e2e056772a877f89175bcd11545e20,,"Mozilla/5.0 (Windows NT 10.0; Win64; x64) AppleWebKit/537.36 (KHTML, like Gecko) Chrome/101.0.4951.54 Safari/537.36 Edg/101.0.1210.39",WebKit,Edge,101.0.1210.39,Windows,10.0,1,1,a,,2436,"<div style=""font-size:46px;"">1 - 1 = 1<br><br><br><br></div>",,1,,,
,html-keyboard-response,81,2246529,0.0-2.0-0.4-2.23,11,1,2022-05-09 13:36:17,07e2e056772a877f89175bcd11545e20,,"Mozilla/5.0 (Windows NT 10.0; Win64; x64) AppleWebKit/537.36 (KHTML, like Gecko) Chrome/101.0.4951.54 Safari/537.36 Edg/101.0.1210.39",WebKit,Edge,101.0.1210.39,Windows,10.0,1,1,a,,null, ,null,,,,
,html-keyboard-response,82,2247531,0.0-2.0-0.4-0.24,11,1,2022-05-09 13:36:17,07e2e056772a877f89175bcd11545e20,,"Mozilla/5.0 (Windows NT 10.0; Win64; x64) AppleWebKit/537.36 (KHTML, like Gecko) Chrome/101.0.4951.54 Safari/537.36 Edg/101.0.1210.39",WebKit,Edge,101.0.1210.39,Windows,10.0,1,1,a,,null,"<div style=""font-size:70px;"">K<br><br><br><br></div>",null,,,,
,html-button-operationspan,83,2250519,0.0-2.0-0.4-1.24,11,1,2022-05-09 13:36:17,07e2e056772a877f89175bcd11545e20,,"Mozilla/5.0 (Windows NT 10.0; Win64; x64) AppleWebKit/537.36 (KHTML, like Gecko) Chrome/101.0.4951.54 Safari/537.36 Edg/101.0.1210.39",WebKit,Edge,101.0.1210.39,Windows,10.0,1,1,a,,2983,"<div style=""font-size:46px;"">2 + 3 = 5<br><br><br><br></div>",,1,,,
,html-keyboard-response,84,2250524,0.0-2.0-0.4-2.24,11,1,2022-05-09 13:36:17,07e2e056772a877f89175bcd11545e20,,"Mozilla/5.0 (Windows NT 10.0; Win64; x64) AppleWebKit/537.36 (KHTML, like Gecko) Chrome/101.0.4951.54 Safari/537.36 Edg/101.0.1210.39",WebKit,Edge,101.0.1210.39,Windows,10.0,1,1,a,,null, ,null,,,,
,operation-span-recall,85,2259629,0.0-2.0-1.4,11,1,2022-05-09 13:36:17,07e2e056772a877f89175bcd11545e20,,"Mozilla/5.0 (Windows NT 10.0; Win64; x64) AppleWebKit/537.36 (KHTML, like Gecko) Chrome/101.0.4951.54 Safari/537.36 Edg/101.0.1210.39",WebKit,Edge,101.0.1210.39,Windows,10.0,1,1,a,,9100,,,0,"R,F,S,T,K","Q,L,P,S,T,K",6
,instructions,86,2261526,0.0-2.0-2.4,11,1,2022-05-09 13:36:17,07e2e056772a877f89175bcd11545e20,,"Mozilla/5.0 (Windows NT 10.0; Win64; x64) AppleWebKit/537.36 (KHTML, like Gecko) Chrome/101.0.4951.54 Safari/537.36 Edg/101.0.1210.39",WebKit,Edge,101.0.1210.39,Windows,10.0,1,1,a,"[{""page_index"":0,""viewing_time"":1894}]",1895,,,,,,
,html-keyboard-response,87,2262536,0.0-2.0-0.5-0.25,11,1,2022-05-09 13:36:17,07e2e056772a877f89175bcd11545e20,,"Mozilla/5.0 (Windows NT 10.0; Win64; x64) AppleWebKit/537.36 (KHTML, like Gecko) Chrome/101.0.4951.54 Safari/537.36 Edg/101.0.1210.39",WebKit,Edge,101.0.1210.39,Windows,10.0,1,1,a,,null,"<div style=""font-size:70px;"">P<br><br><br><br></div>",null,,,,
,html-button-operationspan,88,2264654,0.0-2.0-0.5-1.25,11,1,2022-05-09 13:36:17,07e2e056772a877f89175bcd11545e20,,"Mozilla/5.0 (Windows NT 10.0; Win64; x64) AppleWebKit/537.36 (KHTML, like Gecko) Chrome/101.0.4951.54 Safari/537.36 Edg/101.0.1210.39",WebKit,Edge,101.0.1210.39,Windows,10.0,1,1,a,,2114,"<div style=""font-size:46px;"">4 - 1 = 3<br><br><br><br></div>",,1,,,
,html-keyboard-response,89,2264658,0.0-2.0-0.5-2.25,11,1,2022-05-09 13:36:17,07e2e056772a877f89175bcd11545e20,,"Mozilla/5.0 (Windows NT 10.0; Win64; x64) AppleWebKit/537.36 (KHTML, like Gecko) Chrome/101.0.4951.54 Safari/537.36 Edg/101.0.1210.39",WebKit,Edge,101.0.1210.39,Windows,10.0,1,1,a,,null, ,null,,,,
,html-keyboard-response,90,2265670,0.0-2.0-0.5-0.26,11,1,2022-05-09 13:36:17,07e2e056772a877f89175bcd11545e20,,"Mozilla/5.0 (Windows NT 10.0; Win64; x64) AppleWebKit/537.36 (KHTML, like Gecko) Chrome/101.0.4951.54 Safari/537.36 Edg/101.0.1210.39",WebKit,Edge,101.0.1210.39,Windows,10.0,1,1,a,,null,"<div style=""font-size:70px;"">K<br><br><br><br></div>",null,,,,
,html-button-operationspan,91,2267206,0.0-2.0-0.5-1.26,11,1,2022-05-09 13:36:17,07e2e056772a877f89175bcd11545e20,,"Mozilla/5.0 (Windows NT 10.0; Win64; x64) AppleWebKit/537.36 (KHTML, like Gecko) Chrome/101.0.4951.54 Safari/537.36 Edg/101.0.1210.39",WebKit,Edge,101.0.1210.39,Windows,10.0,1,1,a,,1532,"<div style=""font-size:46px;"">4 - 2 = 2<br><br><br><br></div>",,1,,,
,html-keyboard-response,92,2267210,0.0-2.0-0.5-2.26,11,1,2022-05-09 13:36:17,07e2e056772a877f89175bcd11545e20,,"Mozilla/5.0 (Windows NT 10.0; Win64; x64) AppleWebKit/537.36 (KHTML, like Gecko) Chrome/101.0.4951.54 Safari/537.36 Edg/101.0.1210.39",WebKit,Edge,101.0.1210.39,Windows,10.0,1,1,a,,null, ,null,,,,
,html-keyboard-response,93,2268214,0.0-2.0-0.5-0.27,11,1,2022-05-09 13:36:17,07e2e056772a877f89175bcd11545e20,,"Mozilla/5.0 (Windows NT 10.0; Win64; x64) AppleWebKit/537.36 (KHTML, like Gecko) Chrome/101.0.4951.54 Safari/537.36 Edg/101.0.1210.39",WebKit,Edge,101.0.1210.39,Windows,10.0,1,1,a,,null,"<div style=""font-size:70px;"">L<br><br><br><br></div>",null,,,,
,html-button-operationspan,94,2269974,0.0-2.0-0.5-1.27,11,1,2022-05-09 13:36:17,07e2e056772a877f89175bcd11545e20,,"Mozilla/5.0 (Windows NT 10.0; Win64; x64) AppleWebKit/537.36 (KHTML, like Gecko) Chrome/101.0.4951.54 Safari/537.36 Edg/101.0.1210.39",WebKit,Edge,101.0.1210.39,Windows,10.0,1,1,a,,1756,"<div style=""font-size:46px;"">1 - 1 = 1<br><br><br><br></div>",,1,,,
,html-keyboard-response,95,2269977,0.0-2.0-0.5-2.27,11,1,2022-05-09 13:36:17,07e2e056772a877f89175bcd11545e20,,"Mozilla/5.0 (Windows NT 10.0; Win64; x64) AppleWebKit/537.36 (KHTML, like Gecko) Chrome/101.0.4951.54 Safari/537.36 Edg/101.0.1210.39",WebKit,Edge,101.0.1210.39,Windows,10.0,1,1,a,,null, ,null,,,,
,html-keyboard-response,96,2270989,0.0-2.0-0.5-0.28,11,1,2022-05-09 13:36:17,07e2e056772a877f89175bcd11545e20,,"Mozilla/5.0 (Windows NT 10.0; Win64; x64) AppleWebKit/537.36 (KHTML, like Gecko) Chrome/101.0.4951.54 Safari/537.36 Edg/101.0.1210.39",WebKit,Edge,101.0.1210.39,Windows,10.0,1,1,a,,null,"<div style=""font-size:70px;"">T<br><br><br><br></div>",null,,,,
,html-button-operationspan,97,2273261,0.0-2.0-0.5-1.28,11,1,2022-05-09 13:36:17,07e2e056772a877f89175bcd11545e20,,"Mozilla/5.0 (Windows NT 10.0; Win64; x64) AppleWebKit/537.36 (KHTML, like Gecko) Chrome/101.0.4951.54 Safari/537.36 Edg/101.0.1210.39",WebKit,Edge,101.0.1210.39,Windows,10.0,1,1,a,,2270,"<div style=""font-size:46px;"">4 + 2 = 6<br><br><br><br></div>",,1,,,
,html-keyboard-response,98,2273266,0.0-2.0-0.5-2.28,11,1,2022-05-09 13:36:17,07e2e056772a877f89175bcd11545e20,,"Mozilla/5.0 (Windows NT 10.0; Win64; x64) AppleWebKit/537.36 (KHTML, like Gecko) Chrome/101.0.4951.54 Safari/537.36 Edg/101.0.1210.39",WebKit,Edge,101.0.1210.39,Windows,10.0,1,1,a,,null, ,null,,,,
,html-keyboard-response,99,2274276,0.0-2.0-0.5-0.29,11,1,2022-05-09 13:36:17,07e2e056772a877f89175bcd11545e20,,"Mozilla/5.0 (Windows NT 10.0; Win64; x64) AppleWebKit/537.36 (KHTML, like Gecko) Chrome/101.0.4951.54 Safari/537.36 Edg/101.0.1210.39",WebKit,Edge,101.0.1210.39,Windows,10.0,1,1,a,,null,"<div style=""font-size:70px;"">R<br><br><br><br></div>",null,,,,
,html-button-operationspan,100,2277135,0.0-2.0-0.5-1.29,11,1,2022-05-09 13:36:17,07e2e056772a877f89175bcd11545e20,,"Mozilla/5.0 (Windows NT 10.0; Win64; x64) AppleWebKit/537.36 (KHTML, like Gecko) Chrome/101.0.4951.54 Safari/537.36 Edg/101.0.1210.39",WebKit,Edge,101.0.1210.39,Windows,10.0,1,1,a,,2856,"<div style=""font-size:46px;"">3 - 1 = 2<br><br><br><br></div>",,1,,,
,html-keyboard-response,101,2277139,0.0-2.0-0.5-2.29,11,1,2022-05-09 13:36:17,07e2e056772a877f89175bcd11545e20,,"Mozilla/5.0 (Windows NT 10.0; Win64; x64) AppleWebKit/537.36 (KHTML, like Gecko) Chrome/101.0.4951.54 Safari/537.36 Edg/101.0.1210.39",WebKit,Edge,101.0.1210.39,Windows,10.0,1,1,a,,null, ,null,,,,
,operation-span-recall,102,2286157,0.0-2.0-1.5,11,1,2022-05-09 13:36:17,07e2e056772a877f89175bcd11545e20,,"Mozilla/5.0 (Windows NT 10.0; Win64; x64) AppleWebKit/537.36 (KHTML, like Gecko) Chrome/101.0.4951.54 Safari/537.36 Edg/101.0.1210.39",WebKit,Edge,101.0.1210.39,Windows,10.0,1,1,a,,9014,,,2,"P,H,R,T","P,K,L,T,R",5
,instructions,103,2287573,0.0-2.0-2.5,11,1,2022-05-09 13:36:17,07e2e056772a877f89175bcd11545e20,,"Mozilla/5.0 (Windows NT 10.0; Win64; x64) AppleWebKit/537.36 (KHTML, like Gecko) Chrome/101.0.4951.54 Safari/537.36 Edg/101.0.1210.39",WebKit,Edge,101.0.1210.39,Windows,10.0,1,1,a,"[{""page_index"":0,""viewing_time"":1414}]",1414,,,,,,
true,fullscreen,104,2288585,0.0-3.0,11,1,2022-05-09 13:36:17,07e2e056772a877f89175bcd11545e20,,"Mozilla/5.0 (Windows NT 10.0; Win64; x64) AppleWebKit/537.36 (KHTML, like Gecko) Chrome/101.0.4951.54 Safari/537.36 Edg/101.0.1210.39",WebKit,Edge,101.0.1210.39,Windows,10.0,1,1,a,,,,,,,,
,html-keyboard-response,105,2291398,0.0-4.0,11,1,2022-05-09 13:36:17,07e2e056772a877f89175bcd11545e20,,"Mozilla/5.0 (Windows NT 10.0; Win64; x64) AppleWebKit/537.36 (KHTML, like Gecko) Chrome/101.0.4951.54 Safari/537.36 Edg/101.0.1210.39",WebKit,Edge,101.0.1210.39,Windows,10.0,1,1,a,,2811,"<div style=""font-size:20px;"">Tehtävä on ohi.<br><br>Kiitos osallistumisestasi. <br><br>Paina välilyöntiä lopettaaksesi tehtävä.</div>",32,,,,
true,fullscreen,0,993470,0.0-0.0,2,1,2022-05-05 14:02:39,07e2e056772a877f89175bcd11545e20,,"Mozilla/5.0 (Windows NT 10.0; Win64; x64) AppleWebKit/537.36 (KHTML, like Gecko) Chrome/101.0.4951.41 Safari/537.36 Edg/101.0.1210.32",WebKit,Edge,101.0.1210.32,Windows,10.0,3,2,a,,,,,,,,
,instructions,1,996580,0.0-1.0,2,1,2022-05-05 14:02:39,07e2e056772a877f89175bcd11545e20,,"Mozilla/5.0 (Windows NT 10.0; Win64; x64) AppleWebKit/537.36 (KHTML, like Gecko) Chrome/101.0.4951.41 Safari/537.36 Edg/101.0.1210.32",WebKit,Edge,101.0.1210.32,Windows,10.0,3,2,a,"[{""page_index"":0,""viewing_time"":3108}]",3108,,,,,,
,html-keyboard-response,2,997583,0.0-2.0-0.0-0.0,2,1,2022-05-05 14:02:39,07e2e056772a877f89175bcd11545e20,,"Mozilla/5.0 (Windows NT 10.0; Win64; x64) AppleWebKit/537.36 (KHTML, like Gecko) Chrome/101.0.4951.41 Safari/537.36 Edg/101.0.1210.32",WebKit,Edge,101.0.1210.32,Windows,10.0,3,2,a,,null,"<div style=""font-size:70px;"">L<br><br><br><br></div>",null,,,,
,html-button-operationspan,3,1000436,0.0-2.0-0.0-1.0,2,1,2022-05-05 14:02:39,07e2e056772a877f89175bcd11545e20,,"Mozilla/5.0 (Windows NT 10.0; Win64; x64) AppleWebKit/537.36 (KHTML, like Gecko) Chrome/101.0.4951.41 Safari/537.36 Edg/101.0.1210.32",WebKit,Edge,101.0.1210.32,Windows,10.0,3,2,a,,2850,"<div style=""font-size:46px;"">9 - 1 = 6<br><br><br><br></div>",,1,,,
,html-keyboard-response,4,1000441,0.0-2.0-0.0-2.0,2,1,2022-05-05 14:02:39,07e2e056772a877f89175bcd11545e20,,"Mozilla/5.0 (Windows NT 10.0; Win64; x64) AppleWebKit/537.36 (KHTML, like Gecko) Chrome/101.0.4951.41 Safari/537.36 Edg/101.0.1210.32",WebKit,Edge,101.0.1210.32,Windows,10.0,3,2,a,,null, ,null,,,,
,html-keyboard-response,5,1001457,0.0-2.0-0.0-0.1,2,1,2022-05-05 14:02:39,07e2e056772a877f89175bcd11545e20,,"Mozilla/5.0 (Windows NT 10.0; Win64; x64) AppleWebKit/537.36 (KHTML, like Gecko) Chrome/101.0.4951.41 Safari/537.36 Edg/101.0.1210.32",WebKit,Edge,101.0.1210.32,Windows,10.0,3,2,a,,null,"<div style=""font-size:70px;"">R<br><br><br><br></div>",null,,,,
,html-button-operationspan,6,1004523,0.0-2.0-0.0-1.1,2,1,2022-05-05 14:02:39,07e2e056772a877f89175bcd11545e20,,"Mozilla/5.0 (Windows NT 10.0; Win64; x64) AppleWebKit/537.36 (KHTML, like Gecko) Chrome/101.0.4951.41 Safari/537.36 Edg/101.0.1210.32",WebKit,Edge,101.0.1210.32,Windows,10.0,3,2,a,,3063,"<div style=""font-size:46px;"">3 - 1 = 2<br><br><br><br></div>",,1,,,
,html-keyboard-response,7,1004526,0.0-2.0-0.0-2.1,2,1,2022-05-05 14:02:39,07e2e056772a877f89175bcd11545e20,,"Mozilla/5.0 (Windows NT 10.0; Win64; x64) AppleWebKit/537.36 (KHTML, like Gecko) Chrome/101.0.4951.41 Safari/537.36 Edg/101.0.1210.32",WebKit,Edge,101.0.1210.32,Windows,10.0,3,2,a,,null, ,null,,,,
,html-keyboard-response,8,1005528,0.0-2.0-0.0-0.2,2,1,2022-05-05 14:02:39,07e2e056772a877f89175bcd11545e20,,"Mozilla/5.0 (Windows NT 10.0; Win64; x64) AppleWebKit/537.36 (KHTML, like Gecko) Chrome/101.0.4951.41 Safari/537.36 Edg/101.0.1210.32",WebKit,Edge,101.0.1210.32,Windows,10.0,3,2,a,,null,"<div style=""font-size:70px;"">S<br><br><br><br></div>",null,,,,
,html-button-operationspan,9,1007340,0.0-2.0-0.0-1.2,2,1,2022-05-05 14:02:39,07e2e056772a877f89175bcd11545e20,,"Mozilla/5.0 (Windows NT 10.0; Win64; x64) AppleWebKit/537.36 (KHTML, like Gecko) Chrome/101.0.4951.41 Safari/537.36 Edg/101.0.1210.32",WebKit,Edge,101.0.1210.32,Windows,10.0,3,2,a,,1810,"<div style=""font-size:46px;"">2 - 1 = 0<br><br><br><br></div>",,1,,,
,html-keyboard-response,10,1007342,0.0-2.0-0.0-2.2,2,1,2022-05-05 14:02:39,07e2e056772a877f89175bcd11545e20,,"Mozilla/5.0 (Windows NT 10.0; Win64; x64) AppleWebKit/537.36 (KHTML, like Gecko) Chrome/101.0.4951.41 Safari/537.36 Edg/101.0.1210.32",WebKit,Edge,101.0.1210.32,Windows,10.0,3,2,a,,null, ,null,,,,
,html-keyboard-response,11,1008355,0.0-2.0-0.0-0.3,2,1,2022-05-05 14:02:39,07e2e056772a877f89175bcd11545e20,,"Mozilla/5.0 (Windows NT 10.0; Win64; x64) AppleWebKit/537.36 (KHTML, like Gecko) Chrome/101.0.4951.41 Safari/537.36 Edg/101.0.1210.32",WebKit,Edge,101.0.1210.32,Windows,10.0,3,2,a,,null,"<div style=""font-size:70px;"">P<br><br><br><br></div>",null,,,,
,html-button-operationspan,12,1010333,0.0-2.0-0.0-1.3,2,1,2022-05-05 14:02:39,07e2e056772a877f89175bcd11545e20,,"Mozilla/5.0 (Windows NT 10.0; Win64; x64) AppleWebKit/537.36 (KHTML, like Gecko) Chrome/101.0.4951.41 Safari/537.36 Edg/101.0.1210.32",WebKit,Edge,101.0.1210.32,Windows,10.0,3,2,a,,1975,"<div style=""font-size:46px;"">9 - 8 = 2<br><br><br><br></div>",,1,,,
,html-keyboard-response,13,1010336,0.0-2.0-0.0-2.3,2,1,2022-05-05 14:02:39,07e2e056772a877f89175bcd11545e20,,"Mozilla/5.0 (Windows NT 10.0; Win64; x64) AppleWebKit/537.36 (KHTML, like Gecko) Chrome/101.0.4951.41 Safari/537.36 Edg/101.0.1210.32",WebKit,Edge,101.0.1210.32,Windows,10.0,3,2,a,,null, ,null,,,,
,html-keyboard-response,14,1011352,0.0-2.0-0.0-0.4,2,1,2022-05-05 14:02:39,07e2e056772a877f89175bcd11545e20,,"Mozilla/5.0 (Windows NT 10.0; Win64; x64) AppleWebKit/537.36 (KHTML, like Gecko) Chrome/101.0.4951.41 Safari/537.36 Edg/101.0.1210.32",WebKit,Edge,101.0.1210.32,Windows,10.0,3,2,a,,null,"<div style=""font-size:70px;"">V<br><br><br><br></div>",null,,,,
,html-button-operationspan,15,1014566,0.0-2.0-0.0-1.4,2,1,2022-05-05 14:02:39,07e2e056772a877f89175bcd11545e20,,"Mozilla/5.0 (Windows NT 10.0; Win64; x64) AppleWebKit/537.36 (KHTML, like Gecko) Chrome/101.0.4951.41 Safari/537.36 Edg/101.0.1210.32",WebKit,Edge,101.0.1210.32,Windows,10.0,3,2,a,,3212,"<div style=""font-size:46px;"">5 - 4 = 2<br><br><br><br></div>",,1,,,
,html-keyboard-response,16,1014569,0.0-2.0-0.0-2.4,2,1,2022-05-05 14:02:39,07e2e056772a877f89175bcd11545e20,,"Mozilla/5.0 (Windows NT 10.0; Win64; x64) AppleWebKit/537.36 (KHTML, like Gecko) Chrome/101.0.4951.41 Safari/537.36 Edg/101.0.1210.32",WebKit,Edge,101.0.1210.32,Windows,10.0,3,2,a,,null, ,null,,,,
,html-keyboard-response,17,1015574,0.0-2.0-0.0-0.5,2,1,2022-05-05 14:02:39,07e2e056772a877f89175bcd11545e20,,"Mozilla/5.0 (Windows NT 10.0; Win64; x64) AppleWebKit/537.36 (KHTML, like Gecko) Chrome/101.0.4951.41 Safari/537.36 Edg/101.0.1210.32",WebKit,Edge,101.0.1210.32,Windows,10.0,3,2,a,,null,"<div style=""font-size:70px;"">N<br><br><br><br></div>",null,,,,
,html-button-operationspan,18,1017771,0.0-2.0-0.0-1.5,2,1,2022-05-05 14:02:39,07e2e056772a877f89175bcd11545e20,,"Mozilla/5.0 (Windows NT 10.0; Win64; x64) AppleWebKit/537.36 (KHTML, like Gecko) Chrome/101.0.4951.41 Safari/537.36 Edg/101.0.1210.32",WebKit,Edge,101.0.1210.32,Windows,10.0,3,2,a,,2196,"<div style=""font-size:46px;"">5 + 4 = 9<br><br><br><br></div>",,1,,,
,html-keyboard-response,19,1017774,0.0-2.0-0.0-2.5,2,1,2022-05-05 14:02:39,07e2e056772a877f89175bcd11545e20,,"Mozilla/5.0 (Windows NT 10.0; Win64; x64) AppleWebKit/537.36 (KHTML, like Gecko) Chrome/101.0.4951.41 Safari/537.36 Edg/101.0.1210.32",WebKit,Edge,101.0.1210.32,Windows,10.0,3,2,a,,null, ,null,,,,
,operation-span-recall,20,1024133,0.0-2.0-1.0,2,1,2022-05-05 14:02:39,07e2e056772a877f89175bcd11545e20,,"Mozilla/5.0 (Windows NT 10.0; Win64; x64) AppleWebKit/537.36 (KHTML, like Gecko) Chrome/101.0.4951.41 Safari/537.36 Edg/101.0.1210.32",WebKit,Edge,101.0.1210.32,Windows,10.0,3,2,a,,6353,,,3,"L,R,S,V,N","L,R,S,P,V,N",6
,instructions,21,1026667,0.0-2.0-2.0,2,1,2022-05-05 14:02:39,07e2e056772a877f89175bcd11545e20,,"Mozilla/5.0 (Windows NT 10.0; Win64; x64) AppleWebKit/537.36 (KHTML, like Gecko) Chrome/101.0.4951.41 Safari/537.36 Edg/101.0.1210.32",WebKit,Edge,101.0.1210.32,Windows,10.0,3,2,a,"[{""page_index"":0,""viewing_time"":2533}]",2533,,,,,,
,html-keyboard-response,22,1027680,0.0-2.0-0.1-0.6,2,1,2022-05-05 14:02:39,07e2e056772a877f89175bcd11545e20,,"Mozilla/5.0 (Windows NT 10.0; Win64; x64) AppleWebKit/537.36 (KHTML, like Gecko) Chrome/101.0.4951.41 Safari/537.36 Edg/101.0.1210.32",WebKit,Edge,101.0.1210.32,Windows,10.0,3,2,a,,null,"<div style=""font-size:70px;"">K<br><br><br><br></div>",null,,,,
,html-button-operationspan,23,1032252,0.0-2.0-0.1-1.6,2,1,2022-05-05 14:02:39,07e2e056772a877f89175bcd11545e20,,"Mozilla/5.0 (Windows NT 10.0; Win64; x64) AppleWebKit/537.36 (KHTML, like Gecko) Chrome/101.0.4951.41 Safari/537.36 Edg/101.0.1210.32",WebKit,Edge,101.0.1210.32,Windows,10.0,3,2,a,,4570,"<div style=""font-size:46px;"">4 + 2 = 8<br><br><br><br></div>",,1,,,
,html-keyboard-response,24,1032254,0.0-2.0-0.1-2.6,2,1,2022-05-05 14:02:39,07e2e056772a877f89175bcd11545e20,,"Mozilla/5.0 (Windows NT 10.0; Win64; x64) AppleWebKit/537.36 (KHTML, like Gecko) Chrome/101.0.4951.41 Safari/537.36 Edg/101.0.1210.32",WebKit,Edge,101.0.1210.32,Windows,10.0,3,2,a,,null, ,null,,,,
,html-keyboard-response,25,1033268,0.0-2.0-0.1-0.7,2,1,2022-05-05 14:02:39,07e2e056772a877f89175bcd11545e20,,"Mozilla/5.0 (Windows NT 10.0; Win64; x64) AppleWebKit/537.36 (KHTML, like Gecko) Chrome/101.0.4951.41 Safari/537.36 Edg/101.0.1210.32",WebKit,Edge,101.0.1210.32,Windows,10.0,3,2,a,,null,"<div style=""font-size:70px;"">N<br><br><br><br></div>",null,,,,
,html-button-operationspan,26,1038630,0.0-2.0-0.1-1.7,2,1,2022-05-05 14:02:39,07e2e056772a877f89175bcd11545e20,,"Mozilla/5.0 (Windows NT 10.0; Win64; x64) AppleWebKit/537.36 (KHTML, like Gecko) Chrome/101.0.4951.41 Safari/537.36 Edg/101.0.1210.32",WebKit,Edge,101.0.1210.32,Windows,10.0,3,2,a,,5360,"<div style=""font-size:46px;"">7 + 8 = 16<br><br><br><br></div>",,1,,,
,html-keyboard-response,27,1038634,0.0-2.0-0.1-2.7,2,1,2022-05-05 14:02:39,07e2e056772a877f89175bcd11545e20,,"Mozilla/5.0 (Windows NT 10.0; Win64; x64) AppleWebKit/537.36 (KHTML, like Gecko) Chrome/101.0.4951.41 Safari/537.36 Edg/101.0.1210.32",WebKit,Edge,101.0.1210.32,Windows,10.0,3,2,a,,null, ,null,,,,
,html-keyboard-response,28,1039643,0.0-2.0-0.1-0.8,2,1,2022-05-05 14:02:39,07e2e056772a877f89175bcd11545e20,,"Mozilla/5.0 (Windows NT 10.0; Win64; x64) AppleWebKit/537.36 (KHTML, like Gecko) Chrome/101.0.4951.41 Safari/537.36 Edg/101.0.1210.32",WebKit,Edge,101.0.1210.32,Windows,10.0,3,2,a,,null,"<div style=""font-size:70px;"">Q<br><br><br><br></div>",null,,,,
,html-button-operationspan,29,1041996,0.0-2.0-0.1-1.8,2,1,2022-05-05 14:02:39,07e2e056772a877f89175bcd11545e20,,"Mozilla/5.0 (Windows NT 10.0; Win64; x64) AppleWebKit/537.36 (KHTML, like Gecko) Chrome/101.0.4951.41 Safari/537.36 Edg/101.0.1210.32",WebKit,Edge,101.0.1210.32,Windows,10.0,3,2,a,,2351,"<div style=""font-size:46px;"">7 + 7 = 15<br><br><br><br></div>",,1,,,
,html-keyboard-response,30,1041998,0.0-2.0-0.1-2.8,2,1,2022-05-05 14:02:39,07e2e056772a877f89175bcd11545e20,,"Mozilla/5.0 (Windows NT 10.0; Win64; x64) AppleWebKit/537.36 (KHTML, like Gecko) Chrome/101.0.4951.41 Safari/537.36 Edg/101.0.1210.32",WebKit,Edge,101.0.1210.32,Windows,10.0,3,2,a,,null, ,null,,,,
,html-keyboard-response,31,1043016,0.0-2.0-0.1-0.9,2,1,2022-05-05 14:02:39,07e2e056772a877f89175bcd11545e20,,"Mozilla/5.0 (Windows NT 10.0; Win64; x64) AppleWebKit/537.36 (KHTML, like Gecko) Chrome/101.0.4951.41 Safari/537.36 Edg/101.0.1210.32",WebKit,Edge,101.0.1210.32,Windows,10.0,3,2,a,,null,"<div style=""font-size:70px;"">J<br><br><br><br></div>",null,,,,
,html-button-operationspan,32,1045908,0.0-2.0-0.1-1.9,2,1,2022-05-05 14:02:39,07e2e056772a877f89175bcd11545e20,,"Mozilla/5.0 (Windows NT 10.0; Win64; x64) AppleWebKit/537.36 (KHTML, like Gecko) Chrome/101.0.4951.41 Safari/537.36 Edg/101.0.1210.32",WebKit,Edge,101.0.1210.32,Windows,10.0,3,2,a,,2890,"<div style=""font-size:46px;"">7 - 3 = 4<br><br><br><br></div>",,0,,,
,html-keyboard-response,33,1045911,0.0-2.0-0.1-2.9,2,1,2022-05-05 14:02:39,07e2e056772a877f89175bcd11545e20,,"Mozilla/5.0 (Windows NT 10.0; Win64; x64) AppleWebKit/537.36 (KHTML, like Gecko) Chrome/101.0.4951.41 Safari/537.36 Edg/101.0.1210.32",WebKit,Edge,101.0.1210.32,Windows,10.0,3,2,a,,null, ,null,,,,
,operation-span-recall,34,1050075,0.0-2.0-1.1,2,1,2022-05-05 14:02:39,07e2e056772a877f89175bcd11545e20,,"Mozilla/5.0 (Windows NT 10.0; Win64; x64) AppleWebKit/537.36 (KHTML, like Gecko) Chrome/101.0.4951.41 Safari/537.36 Edg/101.0.1210.32",WebKit,Edge,101.0.1210.32,Windows,10.0,3,2,a,,4161,,,3,"L,N,Q,J","K,N,Q,J",4
,instructions,35,1055468,0.0-2.0-2.1,2,1,2022-05-05 14:02:39,07e2e056772a877f89175bcd11545e20,,"Mozilla/5.0 (Windows NT 10.0; Win64; x64) AppleWebKit/537.36 (KHTML, like Gecko) Chrome/101.0.4951.41 Safari/537.36 Edg/101.0.1210.32",WebKit,Edge,101.0.1210.32,Windows,10.0,3,2,a,"[{""page_index"":0,""viewing_time"":5390}]",5390,,,,,,
,html-keyboard-response,36,1056470,0.0-2.0-0.2-0.10,2,1,2022-05-05 14:02:39,07e2e056772a877f89175bcd11545e20,,"Mozilla/5.0 (Windows NT 10.0; Win64; x64) AppleWebKit/537.36 (KHTML, like Gecko) Chrome/101.0.4951.41 Safari/537.36 Edg/101.0.1210.32",WebKit,Edge,101.0.1210.32,Windows,10.0,3,2,a,,null,"<div style=""font-size:70px;"">K<br><br><br><br></div>",null,,,,
,html-button-operationspan,37,1058724,0.0-2.0-0.2-1.10,2,1,2022-05-05 14:02:39,07e2e056772a877f89175bcd11545e20,,"Mozilla/5.0 (Windows NT 10.0; Win64; x64) AppleWebKit/537.36 (KHTML, like Gecko) Chrome/101.0.4951.41 Safari/537.36 Edg/101.0.1210.32",WebKit,Edge,101.0.1210.32,Windows,10.0,3,2,a,,2252,"<div style=""font-size:46px;"">3 + 2 = 6<br><br><br><br></div>",,1,,,
,html-keyboard-response,38,1058728,0.0-2.0-0.2-2.10,2,1,2022-05-05 14:02:39,07e2e056772a877f89175bcd11545e20,,"Mozilla/5.0 (Windows NT 10.0; Win64; x64) AppleWebKit/537.36 (KHTML, like Gecko) Chrome/101.0.4951.41 Safari/537.36 Edg/101.0.1210.32",WebKit,Edge,101.0.1210.32,Windows,10.0,3,2,a,,null, ,null,,,,
,html-keyboard-response,39,1059731,0.0-2.0-0.2-0.11,2,1,2022-05-05 14:02:39,07e2e056772a877f89175bcd11545e20,,"Mozilla/5.0 (Windows NT 10.0; Win64; x64) AppleWebKit/537.36 (KHTML, like Gecko) Chrome/101.0.4951.41 Safari/537.36 Edg/101.0.1210.32",WebKit,Edge,101.0.1210.32,Windows,10.0,3,2,a,,null,"<div style=""font-size:70px;"">Q<br><br><br><br></div>",null,,,,
,html-button-operationspan,40,1061780,0.0-2.0-0.2-1.11,2,1,2022-05-05 14:02:39,07e2e056772a877f89175bcd11545e20,,"Mozilla/5.0 (Windows NT 10.0; Win64; x64) AppleWebKit/537.36 (KHTML, like Gecko) Chrome/101.0.4951.41 Safari/537.36 Edg/101.0.1210.32",WebKit,Edge,101.0.1210.32,Windows,10.0,3,2,a,,2047,"<div style=""font-size:46px;"">10 + 9 = 19<br><br><br><br></div>",,1,,,
,html-keyboard-response,41,1061784,0.0-2.0-0.2-2.11,2,1,2022-05-05 14:02:39,07e2e056772a877f89175bcd11545e20,,"Mozilla/5.0 (Windows NT 10.0; Win64; x64) AppleWebKit/537.36 (KHTML, like Gecko) Chrome/101.0.4951.41 Safari/537.36 Edg/101.0.1210.32",WebKit,Edge,101.0.1210.32,Windows,10.0,3,2,a,,null, ,null,,,,
,html-keyboard-response,42,1062786,0.0-2.0-0.2-0.12,2,1,2022-05-05 14:02:39,07e2e056772a877f89175bcd11545e20,,"Mozilla/5.0 (Windows NT 10.0; Win64; x64) AppleWebKit/537.36 (KHTML, like Gecko) Chrome/101.0.4951.41 Safari/537.36 Edg/101.0.1210.32",WebKit,Edge,101.0.1210.32,Windows,10.0,3,2,a,,null,"<div style=""font-size:70px;"">R<br><br><br><br></div>",null,,,,
,html-button-operationspan,43,1065452,0.0-2.0-0.2-1.12,2,1,2022-05-05 14:02:39,07e2e056772a877f89175bcd11545e20,,"Mozilla/5.0 (Windows NT 10.0; Win64; x64) AppleWebKit/537.36 (KHTML, like Gecko) Chrome/101.0.4951.41 Safari/537.36 Edg/101.0.1210.32",WebKit,Edge,101.0.1210.32,Windows,10.0,3,2,a,,2664,"<div style=""font-size:46px;"">9 - 8 = 1<br><br><br><br></div>",,0,,,
,html-keyboard-response,44,1065454,0.0-2.0-0.2-2.12,2,1,2022-05-05 14:02:39,07e2e056772a877f89175bcd11545e20,,"Mozilla/5.0 (Windows NT 10.0; Win64; x64) AppleWebKit/537.36 (KHTML, like Gecko) Chrome/101.0.4951.41 Safari/537.36 Edg/101.0.1210.32",WebKit,Edge,101.0.1210.32,Windows,10.0,3,2,a,,null, ,null,,,,
,html-keyboard-response,45,1066472,0.0-2.0-0.2-0.13,2,1,2022-05-05 14:02:39,07e2e056772a877f89175bcd11545e20,,"Mozilla/5.0 (Windows NT 10.0; Win64; x64) AppleWebKit/537.36 (KHTML, like Gecko) Chrome/101.0.4951.41 Safari/537.36 Edg/101.0.1210.32",WebKit,Edge,101.0.1210.32,Windows,10.0,3,2,a,,null,"<div style=""font-size:70px;"">N<br><br><br><br></div>",null,,,,
,html-button-operationspan,46,1068860,0.0-2.0-0.2-1.13,2,1,2022-05-05 14:02:39,07e2e056772a877f89175bcd11545e20,,"Mozilla/5.0 (Windows NT 10.0; Win64; x64) AppleWebKit/537.36 (KHTML, like Gecko) Chrome/101.0.4951.41 Safari/537.36 Edg/101.0.1210.32",WebKit,Edge,101.0.1210.32,Windows,10.0,3,2,a,,2385,"<div style=""font-size:46px;"">9 - 2 = 5<br><br><br><br></div>",,1,,,
,html-keyboard-response,47,1068863,0.0-2.0-0.2-2.13,2,1,2022-05-05 14:02:39,07e2e056772a877f89175bcd11545e20,,"Mozilla/5.0 (Windows NT 10.0; Win64; x64) AppleWebKit/537.36 (KHTML, like Gecko) Chrome/101.0.4951.41 Safari/537.36 Edg/101.0.1210.32",WebKit,Edge,101.0.1210.32,Windows,10.0,3,2,a,,null, ,null,,,,
,operation-span-recall,48,1072987,0.0-2.0-1.2,2,1,2022-05-05 14:02:39,07e2e056772a877f89175bcd11545e20,,"Mozilla/5.0 (Windows NT 10.0; Win64; x64) AppleWebKit/537.36 (KHTML, like Gecko) Chrome/101.0.4951.41 Safari/537.36 Edg/101.0.1210.32",WebKit,Edge,101.0.1210.32,Windows,10.0,3,2,a,,4118,,,4,"K,Q,R,N","K,Q,R,N",4
,instructions,49,1074852,0.0-2.0-2.2,2,1,2022-05-05 14:02:39,07e2e056772a877f89175bcd11545e20,,"Mozilla/5.0 (Windows NT 10.0; Win64; x64) AppleWebKit/537.36 (KHTML, like Gecko) Chrome/101.0.4951.41 Safari/537.36 Edg/101.0.1210.32",WebKit,Edge,101.0.1210.32,Windows,10.0,3,2,a,"[{""page_index"":0,""viewing_time"":1864}]",1864,,,,,,
,html-keyboard-response,50,1075854,0.0-2.0-0.3-0.14,2,1,2022-05-05 14:02:39,07e2e056772a877f89175bcd11545e20,,"Mozilla/5.0 (Windows NT 10.0; Win64; x64) AppleWebKit/537.36 (KHTML, like Gecko) Chrome/101.0.4951.41 Safari/537.36 Edg/101.0.1210.32",WebKit,Edge,101.0.1210.32,Windows,10.0,3,2,a,,null,"<div style=""font-size:70px;"">H<br><br><br><br></div>",null,,,,
,html-button-operationspan,51,1077891,0.0-2.0-0.3-1.14,2,1,2022-05-05 14:02:39,07e2e056772a877f89175bcd11545e20,,"Mozilla/5.0 (Windows NT 10.0; Win64; x64) AppleWebKit/537.36 (KHTML, like Gecko) Chrome/101.0.4951.41 Safari/537.36 Edg/101.0.1210.32",WebKit,Edge,101.0.1210.32,Windows,10.0,3,2,a,,2035,"<div style=""font-size:46px;"">4 - 2 = 1<br><br><br><br></div>",,1,,,
,html-keyboard-response,52,1077895,0.0-2.0-0.3-2.14,2,1,2022-05-05 14:02:39,07e2e056772a877f89175bcd11545e20,,"Mozilla/5.0 (Windows NT 10.0; Win64; x64) AppleWebKit/537.36 (KHTML, like Gecko) Chrome/101.0.4951.41 Safari/537.36 Edg/101.0.1210.32",WebKit,Edge,101.0.1210.32,Windows,10.0,3,2,a,,null, ,null,,,,
,html-keyboard-response,53,1078906,0.0-2.0-0.3-0.15,2,1,2022-05-05 14:02:39,07e2e056772a877f89175bcd11545e20,,"Mozilla/5.0 (Windows NT 10.0; Win64; x64) AppleWebKit/537.36 (KHTML, like Gecko) Chrome/101.0.4951.41 Safari/537.36 Edg/101.0.1210.32",WebKit,Edge,101.0.1210.32,Windows,10.0,3,2,a,,null,"<div style=""font-size:70px;"">L<br><br><br><br></div>",null,,,,
,html-button-operationspan,54,1080932,0.0-2.0-0.3-1.15,2,1,2022-05-05 14:02:39,07e2e056772a877f89175bcd11545e20,,"Mozilla/5.0 (Windows NT 10.0; Win64; x64) AppleWebKit/537.36 (KHTML, like Gecko) Chrome/101.0.4951.41 Safari/537.36 Edg/101.0.1210.32",WebKit,Edge,101.0.1210.32,Windows,10.0,3,2,a,,2023,"<div style=""font-size:46px;"">1 + 5 = 5<br><br><br><br></div>",,1,,,
,html-keyboard-response,55,1080936,0.0-2.0-0.3-2.15,2,1,2022-05-05 14:02:39,07e2e056772a877f89175bcd11545e20,,"Mozilla/5.0 (Windows NT 10.0; Win64; x64) AppleWebKit/537.36 (KHTML, like Gecko) Chrome/101.0.4951.41 Safari/537.36 Edg/101.0.1210.32",WebKit,Edge,101.0.1210.32,Windows,10.0,3,2,a,,null, ,null,,,,
,html-keyboard-response,56,1081947,0.0-2.0-0.3-0.16,2,1,2022-05-05 14:02:39,07e2e056772a877f89175bcd11545e20,,"Mozilla/5.0 (Windows NT 10.0; Win64; x64) AppleWebKit/537.36 (KHTML, like Gecko) Chrome/101.0.4951.41 Safari/537.36 Edg/101.0.1210.32",WebKit,Edge,101.0.1210.32,Windows,10.0,3,2,a,,null,"<div style=""font-size:70px;"">S<br><br><br><br></div>",null,,,,
,html-button-operationspan,57,1087539,0.0-2.0-0.3-1.16,2,1,2022-05-05 14:02:39,07e2e056772a877f89175bcd11545e20,,"Mozilla/5.0 (Windows NT 10.0; Win64; x64) AppleWebKit/537.36 (KHTML, like Gecko) Chrome/101.0.4951.41 Safari/537.36 Edg/101.0.1210.32",WebKit,Edge,101.0.1210.32,Windows,10.0,3,2,a,,5591,"<div style=""font-size:46px;"">8 + 6 = 14<br><br><br><br></div>",,1,,,
,html-keyboard-response,58,1087543,0.0-2.0-0.3-2.16,2,1,2022-05-05 14:02:39,07e2e056772a877f89175bcd11545e20,,"Mozilla/5.0 (Windows NT 10.0; Win64; x64) AppleWebKit/537.36 (KHTML, like Gecko) Chrome/101.0.4951.41 Safari/537.36 Edg/101.0.1210.32",WebKit,Edge,101.0.1210.32,Windows,10.0,3,2,a,,null, ,null,,,,
,html-keyboard-response,59,1088552,0.0-2.0-0.3-0.17,2,1,2022-05-05 14:02:39,07e2e056772a877f89175bcd11545e20,,"Mozilla/5.0 (Windows NT 10.0; Win64; x64) AppleWebKit/537.36 (KHTML, like Gecko) Chrome/101.0.4951.41 Safari/537.36 Edg/101.0.1210.32",WebKit,Edge,101.0.1210.32,Windows,10.0,3,2,a,,null,"<div style=""font-size:70px;"">P<br><br><br><br></div>",null,,,,
,html-button-operationspan,60,1090900,0.0-2.0-0.3-1.17,2,1,2022-05-05 14:02:39,07e2e056772a877f89175bcd11545e20,,"Mozilla/5.0 (Windows NT 10.0; Win64; x64) AppleWebKit/537.36 (KHTML, like Gecko) Chrome/101.0.4951.41 Safari/537.36 Edg/101.0.1210.32",WebKit,Edge,101.0.1210.32,Windows,10.0,3,2,a,,2345,"<div style=""font-size:46px;"">2 + 4 = 6<br><br><br><br></div>",,1,,,
,html-keyboard-response,61,1090903,0.0-2.0-0.3-2.17,2,1,2022-05-05 14:02:39,07e2e056772a877f89175bcd11545e20,,"Mozilla/5.0 (Windows NT 10.0; Win64; x64) AppleWebKit/537.36 (KHTML, like Gecko) Chrome/101.0.4951.41 Safari/537.36 Edg/101.0.1210.32",WebKit,Edge,101.0.1210.32,Windows,10.0,3,2,a,,null, ,null,,,,
,html-keyboard-response,62,1091906,0.0-2.0-0.3-0.18,2,1,2022-05-05 14:02:39,07e2e056772a877f89175bcd11545e20,,"Mozilla/5.0 (Windows NT 10.0; Win64; x64) AppleWebKit/537.36 (KHTML, like Gecko) Chrome/101.0.4951.41 Safari/537.36 Edg/101.0.1210.32",WebKit,Edge,101.0.1210.32,Windows,10.0,3,2,a,,null,"<div style=""font-size:70px;"">K<br><br><br><br></div>",null,,,,
,html-button-operationspan,63,1094085,0.0-2.0-0.3-1.18,2,1,2022-05-05 14:02:39,07e2e056772a877f89175bcd11545e20,,"Mozilla/5.0 (Windows NT 10.0; Win64; x64) AppleWebKit/537.36 (KHTML, like Gecko) Chrome/101.0.4951.41 Safari/537.36 Edg/101.0.1210.32",WebKit,Edge,101.0.1210.32,Windows,10.0,3,2,a,,2175,"<div style=""font-size:46px;"">7 + 10 = 19<br><br><br><br></div>",,1,,,
,html-keyboard-response,64,1094088,0.0-2.0-0.3-2.18,2,1,2022-05-05 14:02:39,07e2e056772a877f89175bcd11545e20,,"Mozilla/5.0 (Windows NT 10.0; Win64; x64) AppleWebKit/537.36 (KHTML, like Gecko) Chrome/101.0.4951.41 Safari/537.36 Edg/101.0.1210.32",WebKit,Edge,101.0.1210.32,Windows,10.0,3,2,a,,null, ,null,,,,
,operation-span-recall,65,1100051,0.0-2.0-1.3,2,1,2022-05-05 14:02:39,07e2e056772a877f89175bcd11545e20,,"Mozilla/5.0 (Windows NT 10.0; Win64; x64) AppleWebKit/537.36 (KHTML, like Gecko) Chrome/101.0.4951.41 Safari/537.36 Edg/101.0.1210.32",WebKit,Edge,101.0.1210.32,Windows,10.0,3,2,a,,5960,,,3,"K,L,S,P,N","H,L,S,P,K",5
,instructions,66,1103020,0.0-2.0-2.3,2,1,2022-05-05 14:02:39,07e2e056772a877f89175bcd11545e20,,"Mozilla/5.0 (Windows NT 10.0; Win64; x64) AppleWebKit/537.36 (KHTML, like Gecko) Chrome/101.0.4951.41 Safari/537.36 Edg/101.0.1210.32",WebKit,Edge,101.0.1210.32,Windows,10.0,3,2,a,"[{""page_index"":0,""viewing_time"":2967}]",2968,,,,,,
,html-keyboard-response,67,1104033,0.0-2.0-0.4-0.19,2,1,2022-05-05 14:02:39,07e2e056772a877f89175bcd11545e20,,"Mozilla/5.0 (Windows NT 10.0; Win64; x64) AppleWebKit/537.36 (KHTML, like Gecko) Chrome/101.0.4951.41 Safari/537.36 Edg/101.0.1210.32",WebKit,Edge,101.0.1210.32,Windows,10.0,3,2,a,,null,"<div style=""font-size:70px;"">L<br><br><br><br></div>",null,,,,
,html-button-operationspan,68,1107124,0.0-2.0-0.4-1.19,2,1,2022-05-05 14:02:39,07e2e056772a877f89175bcd11545e20,,"Mozilla/5.0 (Windows NT 10.0; Win64; x64) AppleWebKit/537.36 (KHTML, like Gecko) Chrome/101.0.4951.41 Safari/537.36 Edg/101.0.1210.32",WebKit,Edge,101.0.1210.32,Windows,10.0,3,2,a,,3088,"<div style=""font-size:46px;"">10 - 4 = 6<br><br><br><br></div>",,1,,,
,html-keyboard-response,69,1107129,0.0-2.0-0.4-2.19,2,1,2022-05-05 14:02:39,07e2e056772a877f89175bcd11545e20,,"Mozilla/5.0 (Windows NT 10.0; Win64; x64) AppleWebKit/537.36 (KHTML, like Gecko) Chrome/101.0.4951.41 Safari/537.36 Edg/101.0.1210.32",WebKit,Edge,101.0.1210.32,Windows,10.0,3,2,a,,null, ,null,,,,
,html-keyboard-response,70,1108132,0.0-2.0-0.4-0.20,2,1,2022-05-05 14:02:39,07e2e056772a877f89175bcd11545e20,,"Mozilla/5.0 (Windows NT 10.0; Win64; x64) AppleWebKit/537.36 (KHTML, like Gecko) Chrome/101.0.4951.41 Safari/537.36 Edg/101.0.1210.32",WebKit,Edge,101.0.1210.32,Windows,10.0,3,2,a,,null,"<div style=""font-size:70px;"">Q<br><br><br><br></div>",null,,,,
,html-button-operationspan,71,1112348,0.0-2.0-0.4-1.20,2,1,2022-05-05 14:02:39,07e2e056772a877f89175bcd11545e20,,"Mozilla/5.0 (Windows NT 10.0; Win64; x64) AppleWebKit/537.36 (KHTML, like Gecko) Chrome/101.0.4951.41 Safari/537.36 Edg/101.0.1210.32",WebKit,Edge,101.0.1210.32,Windows,10.0,3,2,a,,4213,"<div style=""font-size:46px;"">8 - 5 = 3<br><br><br><br></div>",,0,,,
,html-keyboard-response,72,1112352,0.0-2.0-0.4-2.20,2,1,2022-05-05 14:02:39,07e2e056772a877f89175bcd11545e20,,"Mozilla/5.0 (Windows NT 10.0; Win64; x64) AppleWebKit/537.36 (KHTML, like Gecko) Chrome/101.0.4951.41 Safari/537.36 Edg/101.0.1210.32",WebKit,Edge,101.0.1210.32,Windows,10.0,3,2,a,,null, ,null,,,,
,html-keyboard-response,73,1113355,0.0-2.0-0.4-0.21,2,1,2022-05-05 14:02:39,07e2e056772a877f89175bcd11545e20,,"Mozilla/5.0 (Windows NT 10.0; Win64; x64) AppleWebKit/537.36 (KHTML, like Gecko) Chrome/101.0.4951.41 Safari/537.36 Edg/101.0.1210.32",WebKit,Edge,101.0.1210.32,Windows,10.0,3,2,a,,null,"<div style=""font-size:70px;"">F<br><br><br><br></div>",null,,,,
,html-button-operationspan,74,1115429,0.0-2.0-0.4-1.21,2,1,2022-05-05 14:02:39,07e2e056772a877f89175bcd11545e20,,"Mozilla/5.0 (Windows NT 10.0; Win64; x64) AppleWebKit/537.36 (KHTML, like Gecko) Chrome/101.0.4951.41 Safari/537.36 Edg/101.0.1210.32",WebKit,Edge,101.0.1210.32,Windows,10.0,3,2,a,,2072,"<div style=""font-size:46px;"">4 - 3 = 0<br><br><br><br></div>",,1,,,
,html-keyboard-response,75,1115434,0.0-2.0-0.4-2.21,2,1,2022-05-05 14:02:39,07e2e056772a877f89175bcd11545e20,,"Mozilla/5.0 (Windows NT 10.0; Win64; x64) AppleWebKit/537.36 (KHTML, like Gecko) Chrome/101.0.4951.41 Safari/537.36 Edg/101.0.1210.32",WebKit,Edge,101.0.1210.32,Windows,10.0,3,2,a,,null, ,null,,,,
,html-keyboard-response,76,1116439,0.0-2.0-0.4-0.22,2,1,2022-05-05 14:02:39,07e2e056772a877f89175bcd11545e20,,"Mozilla/5.0 (Windows NT 10.0; Win64; x64) AppleWebKit/537.36 (KHTML, like Gecko) Chrome/101.0.4951.41 Safari/537.36 Edg/101.0.1210.32",WebKit,Edge,101.0.1210.32,Windows,10.0,3,2,a,,null,"<div style=""font-size:70px;"">V<br><br><br><br></div>",null,,,,
,html-button-operationspan,77,1119085,0.0-2.0-0.4-1.22,2,1,2022-05-05 14:02:39,07e2e056772a877f89175bcd11545e20,,"Mozilla/5.0 (Windows NT 10.0; Win64; x64) AppleWebKit/537.36 (KHTML, like Gecko) Chrome/101.0.4951.41 Safari/537.36 Edg/101.0.1210.32",WebKit,Edge,101.0.1210.32,Windows,10.0,3,2,a,,2641,"<div style=""font-size:46px;"">4 + 7 = 10<br><br><br><br></div>",,1,,,
,html-keyboard-response,78,1119088,0.0-2.0-0.4-2.22,2,1,2022-05-05 14:02:39,07e2e056772a877f89175bcd11545e20,,"Mozilla/5.0 (Windows NT 10.0; Win64; x64) AppleWebKit/537.36 (KHTML, like Gecko) Chrome/101.0.4951.41 Safari/537.36 Edg/101.0.1210.32",WebKit,Edge,101.0.1210.32,Windows,10.0,3,2,a,,null, ,null,,,,
,html-keyboard-response,79,1120091,0.0-2.0-0.4-0.23,2,1,2022-05-05 14:02:39,07e2e056772a877f89175bcd11545e20,,"Mozilla/5.0 (Windows NT 10.0; Win64; x64) AppleWebKit/537.36 (KHTML, like Gecko) Chrome/101.0.4951.41 Safari/537.36 Edg/101.0.1210.32",WebKit,Edge,101.0.1210.32,Windows,10.0,3,2,a,,null,"<div style=""font-size:70px;"">T<br><br><br><br></div>",null,,,,
,html-button-operationspan,80,1124556,0.0-2.0-0.4-1.23,2,1,2022-05-05 14:02:39,07e2e056772a877f89175bcd11545e20,,"Mozilla/5.0 (Windows NT 10.0; Win64; x64) AppleWebKit/537.36 (KHTML, like Gecko) Chrome/101.0.4951.41 Safari/537.36 Edg/101.0.1210.32",WebKit,Edge,101.0.1210.32,Windows,10.0,3,2,a,,4461,"<div style=""font-size:46px;"">7 - 2 = 6<br><br><br><br></div>",,1,,,
,html-keyboard-response,81,1124562,0.0-2.0-0.4-2.23,2,1,2022-05-05 14:02:39,07e2e056772a877f89175bcd11545e20,,"Mozilla/5.0 (Windows NT 10.0; Win64; x64) AppleWebKit/537.36 (KHTML, like Gecko) Chrome/101.0.4951.41 Safari/537.36 Edg/101.0.1210.32",WebKit,Edge,101.0.1210.32,Windows,10.0,3,2,a,,null, ,null,,,,
,html-keyboard-response,82,1125565,0.0-2.0-0.4-0.24,2,1,2022-05-05 14:02:39,07e2e056772a877f89175bcd11545e20,,"Mozilla/5.0 (Windows NT 10.0; Win64; x64) AppleWebKit/537.36 (KHTML, like Gecko) Chrome/101.0.4951.41 Safari/537.36 Edg/101.0.1210.32",WebKit,Edge,101.0.1210.32,Windows,10.0,3,2,a,,null,"<div style=""font-size:70px;"">K<br><br><br><br></div>",null,,,,
,html-button-operationspan,83,1128172,0.0-2.0-0.4-1.24,2,1,2022-05-05 14:02:39,07e2e056772a877f89175bcd11545e20,,"Mozilla/5.0 (Windows NT 10.0; Win64; x64) AppleWebKit/537.36 (KHTML, like Gecko) Chrome/101.0.4951.41 Safari/537.36 Edg/101.0.1210.32",WebKit,Edge,101.0.1210.32,Windows,10.0,3,2,a,,2604,"<div style=""font-size:46px;"">9 - 8 = 1<br><br><br><br></div>",,1,,,
,html-keyboard-response,84,1128176,0.0-2.0-0.4-2.24,2,1,2022-05-05 14:02:39,07e2e056772a877f89175bcd11545e20,,"Mozilla/5.0 (Windows NT 10.0; Win64; x64) AppleWebKit/537.36 (KHTML, like Gecko) Chrome/101.0.4951.41 Safari/537.36 Edg/101.0.1210.32",WebKit,Edge,101.0.1210.32,Windows,10.0,3,2,a,,null, ,null,,,,
,operation-span-recall,85,1134181,0.0-2.0-1.4,2,1,2022-05-05 14:02:39,07e2e056772a877f89175bcd11545e20,,"Mozilla/5.0 (Windows NT 10.0; Win64; x64) AppleWebKit/537.36 (KHTML, like Gecko) Chrome/101.0.4951.41 Safari/537.36 Edg/101.0.1210.32",WebKit,Edge,101.0.1210.32,Windows,10.0,3,2,a,,5998,,,3,"L,N,N,V,T","L,Q,F,V,T,K",6
,instructions,86,1136500,0.0-2.0-2.4,2,1,2022-05-05 14:02:39,07e2e056772a877f89175bcd11545e20,,"Mozilla/5.0 (Windows NT 10.0; Win64; x64) AppleWebKit/537.36 (KHTML, like Gecko) Chrome/101.0.4951.41 Safari/537.36 Edg/101.0.1210.32",WebKit,Edge,101.0.1210.32,Windows,10.0,3,2,a,"[{""page_index"":0,""viewing_time"":2317}]",2317,,,,,,
,html-keyboard-response,87,1137514,0.0-2.0-0.5-0.25,2,1,2022-05-05 14:02:39,07e2e056772a877f89175bcd11545e20,,"Mozilla/5.0 (Windows NT 10.0; Win64; x64) AppleWebKit/537.36 (KHTML, like Gecko) Chrome/101.0.4951.41 Safari/537.36 Edg/101.0.1210.32",WebKit,Edge,101.0.1210.32,Windows,10.0,3,2,a,,null,"<div style=""font-size:70px;"">T<br><br><br><br></div>",null,,,,
,html-button-operationspan,88,1142501,0.0-2.0-0.5-1.25,2,1,2022-05-05 14:02:39,07e2e056772a877f89175bcd11545e20,,"Mozilla/5.0 (Windows NT 10.0; Win64; x64) AppleWebKit/537.36 (KHTML, like Gecko) Chrome/101.0.4951.41 Safari/537.36 Edg/101.0.1210.32",WebKit,Edge,101.0.1210.32,Windows,10.0,3,2,a,,4983,"<div style=""font-size:46px;"">4 + 8 = 12<br><br><br><br></div>",,1,,,
,html-keyboard-response,89,1142504,0.0-2.0-0.5-2.25,2,1,2022-05-05 14:02:39,07e2e056772a877f89175bcd11545e20,,"Mozilla/5.0 (Windows NT 10.0; Win64; x64) AppleWebKit/537.36 (KHTML, like Gecko) Chrome/101.0.4951.41 Safari/537.36 Edg/101.0.1210.32",WebKit,Edge,101.0.1210.32,Windows,10.0,3,2,a,,null, ,null,,,,
,html-keyboard-response,90,1143508,0.0-2.0-0.5-0.26,2,1,2022-05-05 14:02:39,07e2e056772a877f89175bcd11545e20,,"Mozilla/5.0 (Windows NT 10.0; Win64; x64) AppleWebKit/537.36 (KHTML, like Gecko) Chrome/101.0.4951.41 Safari/537.36 Edg/101.0.1210.32",WebKit,Edge,101.0.1210.32,Windows,10.0,3,2,a,,null,"<div style=""font-size:70px;"">K<br><br><br><br></div>",null,,,,
,html-button-operationspan,91,1148565,0.0-2.0-0.5-1.26,2,1,2022-05-05 14:02:39,07e2e056772a877f89175bcd11545e20,,"Mozilla/5.0 (Windows NT 10.0; Win64; x64) AppleWebKit/537.36 (KHTML, like Gecko) Chrome/101.0.4951.41 Safari/537.36 Edg/101.0.1210.32",WebKit,Edge,101.0.1210.32,Windows,10.0,3,2,a,,5053,"<div style=""font-size:46px;"">2 + 4 = 7<br><br><br><br></div>",,1,,,
,html-keyboard-response,92,1148569,0.0-2.0-0.5-2.26,2,1,2022-05-05 14:02:39,07e2e056772a877f89175bcd11545e20,,"Mozilla/5.0 (Windows NT 10.0; Win64; x64) AppleWebKit/537.36 (KHTML, like Gecko) Chrome/101.0.4951.41 Safari/537.36 Edg/101.0.1210.32",WebKit,Edge,101.0.1210.32,Windows,10.0,3,2,a,,null, ,null,,,,
,html-keyboard-response,93,1149578,0.0-2.0-0.5-0.27,2,1,2022-05-05 14:02:39,07e2e056772a877f89175bcd11545e20,,"Mozilla/5.0 (Windows NT 10.0; Win64; x64) AppleWebKit/537.36 (KHTML, like Gecko) Chrome/101.0.4951.41 Safari/537.36 Edg/101.0.1210.32",WebKit,Edge,101.0.1210.32,Windows,10.0,3,2,a,,null,"<div style=""font-size:70px;"">S<br><br><br><br></div>",null,,,,
,html-button-operationspan,94,1151862,0.0-2.0-0.5-1.27,2,1,2022-05-05 14:02:39,07e2e056772a877f89175bcd11545e20,,"Mozilla/5.0 (Windows NT 10.0; Win64; x64) AppleWebKit/537.36 (KHTML, like Gecko) Chrome/101.0.4951.41 Safari/537.36 Edg/101.0.1210.32",WebKit,Edge,101.0.1210.32,Windows,10.0,3,2,a,,2280,"<div style=""font-size:46px;"">6 - 1 = 5<br><br><br><br></div>",,1,,,
,html-keyboard-response,95,1151865,0.0-2.0-0.5-2.27,2,1,2022-05-05 14:02:39,07e2e056772a877f89175bcd11545e20,,"Mozilla/5.0 (Windows NT 10.0; Win64; x64) AppleWebKit/537.36 (KHTML, like Gecko) Chrome/101.0.4951.41 Safari/537.36 Edg/101.0.1210.32",WebKit,Edge,101.0.1210.32,Windows,10.0,3,2,a,,null, ,null,,,,
,html-keyboard-response,96,1152883,0.0-2.0-0.5-0.28,2,1,2022-05-05 14:02:39,07e2e056772a877f89175bcd11545e20,,"Mozilla/5.0 (Windows NT 10.0; Win64; x64) AppleWebKit/537.36 (KHTML, like Gecko) Chrome/101.0.4951.41 Safari/537.36 Edg/101.0.1210.32",WebKit,Edge,101.0.1210.32,Windows,10.0,3,2,a,,null,"<div style=""font-size:70px;"">V<br><br><br><br></div>",null,,,,
,html-button-operationspan,97,1154829,0.0-2.0-0.5-1.28,2,1,2022-05-05 14:02:39,07e2e056772a877f89175bcd11545e20,,"Mozilla/5.0 (Windows NT 10.0; Win64; x64) AppleWebKit/537.36 (KHTML, like Gecko) Chrome/101.0.4951.41 Safari/537.36 Edg/101.0.1210.32",WebKit,Edge,101.0.1210.32,Windows,10.0,3,2,a,,1943,"<div style=""font-size:46px;"">6 + 4 = 10<br><br><br><br></div>",,1,,,
,html-keyboard-response,98,1154833,0.0-2.0-0.5-2.28,2,1,2022-05-05 14:02:39,07e2e056772a877f89175bcd11545e20,,"Mozilla/5.0 (Windows NT 10.0; Win64; x64) AppleWebKit/537.36 (KHTML, like Gecko) Chrome/101.0.4951.41 Safari/537.36 Edg/101.0.1210.32",WebKit,Edge,101.0.1210.32,Windows,10.0,3,2,a,,null, ,null,,,,
,html-keyboard-response,99,1155836,0.0-2.0-0.5-0.29,2,1,2022-05-05 14:02:39,07e2e056772a877f89175bcd11545e20,,"Mozilla/5.0 (Windows NT 10.0; Win64; x64) AppleWebKit/537.36 (KHTML, like Gecko) Chrome/101.0.4951.41 Safari/537.36 Edg/101.0.1210.32",WebKit,Edge,101.0.1210.32,Windows,10.0,3,2,a,,null,"<div style=""font-size:70px;"">Q<br><br><br><br></div>",null,,,,
,html-button-operationspan,100,1159309,0.0-2.0-0.5-1.29,2,1,2022-05-05 14:02:39,07e2e056772a877f89175bcd11545e20,,"Mozilla/5.0 (Windows NT 10.0; Win64; x64) AppleWebKit/537.36 (KHTML, like Gecko) Chrome/101.0.4951.41 Safari/537.36 Edg/101.0.1210.32",WebKit,Edge,101.0.1210.32,Windows,10.0,3,2,a,,3470,"<div style=""font-size:46px;"">3 + 7 = 12<br><br><br><br></div>",,1,,,
,html-keyboard-response,101,1159313,0.0-2.0-0.5-2.29,2,1,2022-05-05 14:02:39,07e2e056772a877f89175bcd11545e20,,"Mozilla/5.0 (Windows NT 10.0; Win64; x64) AppleWebKit/537.36 (KHTML, like Gecko) Chrome/101.0.4951.41 Safari/537.36 Edg/101.0.1210.32",WebKit,Edge,101.0.1210.32,Windows,10.0,3,2,a,,null, ,null,,,,
,operation-span-recall,102,1164748,0.0-2.0-1.5,2,1,2022-05-05 14:02:39,07e2e056772a877f89175bcd11545e20,,"Mozilla/5.0 (Windows NT 10.0; Win64; x64) AppleWebKit/537.36 (KHTML, like Gecko) Chrome/101.0.4951.41 Safari/537.36 Edg/101.0.1210.32",WebKit,Edge,101.0.1210.32,Windows,10.0,3,2,a,,5429,,,5,"T,K,S,V,Q","T,K,S,V,Q",5
,instructions,103,1166517,0.0-2.0-2.5,2,1,2022-05-05 14:02:39,07e2e056772a877f89175bcd11545e20,,"Mozilla/5.0 (Windows NT 10.0; Win64; x64) AppleWebKit/537.36 (KHTML, like Gecko) Chrome/101.0.4951.41 Safari/537.36 Edg/101.0.1210.32",WebKit,Edge,101.0.1210.32,Windows,10.0,3,2,a,"[{""page_index"":0,""viewing_time"":1766}]",1766,,,,,,
true,fullscreen,104,1167523,0.0-3.0,2,1,2022-05-05 14:02:39,07e2e056772a877f89175bcd11545e20,,"Mozilla/5.0 (Windows NT 10.0; Win64; x64) AppleWebKit/537.36 (KHTML, like Gecko) Chrome/101.0.4951.41 Safari/537.36 Edg/101.0.1210.32",WebKit,Edge,101.0.1210.32,Windows,10.0,3,2,a,,,,,,,,
,html-keyboard-response,105,1178862,0.0-4.0,2,1,2022-05-05 14:02:39,07e2e056772a877f89175bcd11545e20,,"Mozilla/5.0 (Windows NT 10.0; Win64; x64) AppleWebKit/537.36 (KHTML, like Gecko) Chrome/101.0.4951.41 Safari/537.36 Edg/101.0.1210.32",WebKit,Edge,101.0.1210.32,Windows,10.0,3,2,a,,11336,"<div style=""font-size:20px;"">Tehtävä on ohi.<br><br>Kiitos osallistumisestasi. <br><br>Paina välilyöntiä lopettaaksesi tehtävä.</div>",32,,,,
true,fullscreen,0,269906,0.0-0.0,19,1,2022-05-11 09:05:41,07e2e056772a877f89175bcd11545e20,,"Mozilla/5.0 (Windows NT 10.0; Win64; x64) AppleWebKit/537.36 (KHTML, like Gecko) Chrome/101.0.4951.54 Safari/537.36 Edg/101.0.1210.39",WebKit,Edge,101.0.1210.39,Windows,10.0,10,2,b,,,,,,,,
,instructions,1,273293,0.0-1.0,19,1,2022-05-11 09:05:41,07e2e056772a877f89175bcd11545e20,,"Mozilla/5.0 (Windows NT 10.0; Win64; x64) AppleWebKit/537.36 (KHTML, like Gecko) Chrome/101.0.4951.54 Safari/537.36 Edg/101.0.1210.39",WebKit,Edge,101.0.1210.39,Windows,10.0,10,2,b,"[{""page_index"":0,""viewing_time"":3383}]",3384,,,,,,
,html-keyboard-response,2,274301,0.0-2.0-0.0-0.0,19,1,2022-05-11 09:05:41,07e2e056772a877f89175bcd11545e20,,"Mozilla/5.0 (Windows NT 10.0; Win64; x64) AppleWebKit/537.36 (KHTML, like Gecko) Chrome/101.0.4951.54 Safari/537.36 Edg/101.0.1210.39",WebKit,Edge,101.0.1210.39,Windows,10.0,10,2,b,,null,"<div style=""font-size:70px;"">F<br><br><br><br></div>",null,,,,
,html-button-operationspan,3,276093,0.0-2.0-0.0-1.0,19,1,2022-05-11 09:05:41,07e2e056772a877f89175bcd11545e20,,"Mozilla/5.0 (Windows NT 10.0; Win64; x64) AppleWebKit/537.36 (KHTML, like Gecko) Chrome/101.0.4951.54 Safari/537.36 Edg/101.0.1210.39",WebKit,Edge,101.0.1210.39,Windows,10.0,10,2,b,,1789,"<div style=""font-size:46px;"">8 + 3 = 12<br><br><br><br></div>",,1,,,
,html-keyboard-response,4,276097,0.0-2.0-0.0-2.0,19,1,2022-05-11 09:05:41,07e2e056772a877f89175bcd11545e20,,"Mozilla/5.0 (Windows NT 10.0; Win64; x64) AppleWebKit/537.36 (KHTML, like Gecko) Chrome/101.0.4951.54 Safari/537.36 Edg/101.0.1210.39",WebKit,Edge,101.0.1210.39,Windows,10.0,10,2,b,,null, ,null,,,,
,html-keyboard-response,5,277108,0.0-2.0-0.0-0.1,19,1,2022-05-11 09:05:41,07e2e056772a877f89175bcd11545e20,,"Mozilla/5.0 (Windows NT 10.0; Win64; x64) AppleWebKit/537.36 (KHTML, like Gecko) Chrome/101.0.4951.54 Safari/537.36 Edg/101.0.1210.39",WebKit,Edge,101.0.1210.39,Windows,10.0,10,2,b,,null,"<div style=""font-size:70px;"">S<br><br><br><br></div>",null,,,,
,html-button-operationspan,6,278340,0.0-2.0-0.0-1.1,19,1,2022-05-11 09:05:41,07e2e056772a877f89175bcd11545e20,,"Mozilla/5.0 (Windows NT 10.0; Win64; x64) AppleWebKit/537.36 (KHTML, like Gecko) Chrome/101.0.4951.54 Safari/537.36 Edg/101.0.1210.39",WebKit,Edge,101.0.1210.39,Windows,10.0,10,2,b,,1230,"<div style=""font-size:46px;"">1 - 1 = 0<br><br><br><br></div>",,1,,,
,html-keyboard-response,7,278342,0.0-2.0-0.0-2.1,19,1,2022-05-11 09:05:41,07e2e056772a877f89175bcd11545e20,,"Mozilla/5.0 (Windows NT 10.0; Win64; x64) AppleWebKit/537.36 (KHTML, like Gecko) Chrome/101.0.4951.54 Safari/537.36 Edg/101.0.1210.39",WebKit,Edge,101.0.1210.39,Windows,10.0,10,2,b,,null, ,null,,,,
,html-keyboard-response,8,279348,0.0-2.0-0.0-0.2,19,1,2022-05-11 09:05:41,07e2e056772a877f89175bcd11545e20,,"Mozilla/5.0 (Windows NT 10.0; Win64; x64) AppleWebKit/537.36 (KHTML, like Gecko) Chrome/101.0.4951.54 Safari/537.36 Edg/101.0.1210.39",WebKit,Edge,101.0.1210.39,Windows,10.0,10,2,b,,null,"<div style=""font-size:70px;"">V<br><br><br><br></div>",null,,,,
,html-button-operationspan,9,280452,0.0-2.0-0.0-1.2,19,1,2022-05-11 09:05:41,07e2e056772a877f89175bcd11545e20,,"Mozilla/5.0 (Windows NT 10.0; Win64; x64) AppleWebKit/537.36 (KHTML, like Gecko) Chrome/101.0.4951.54 Safari/537.36 Edg/101.0.1210.39",WebKit,Edge,101.0.1210.39,Windows,10.0,10,2,b,,1103,"<div style=""font-size:46px;"">8 + 1 = 9<br><br><br><br></div>",,1,,,
,html-keyboard-response,10,280454,0.0-2.0-0.0-2.2,19,1,2022-05-11 09:05:41,07e2e056772a877f89175bcd11545e20,,"Mozilla/5.0 (Windows NT 10.0; Win64; x64) AppleWebKit/537.36 (KHTML, like Gecko) Chrome/101.0.4951.54 Safari/537.36 Edg/101.0.1210.39",WebKit,Edge,101.0.1210.39,Windows,10.0,10,2,b,,null, ,null,,,,
,html-keyboard-response,11,281468,0.0-2.0-0.0-0.3,19,1,2022-05-11 09:05:41,07e2e056772a877f89175bcd11545e20,,"Mozilla/5.0 (Windows NT 10.0; Win64; x64) AppleWebKit/537.36 (KHTML, like Gecko) Chrome/101.0.4951.54 Safari/537.36 Edg/101.0.1210.39",WebKit,Edge,101.0.1210.39,Windows,10.0,10,2,b,,null,"<div style=""font-size:70px;"">H<br><br><br><br></div>",null,,,,
,html-button-operationspan,12,282852,0.0-2.0-0.0-1.3,19,1,2022-05-11 09:05:41,07e2e056772a877f89175bcd11545e20,,"Mozilla/5.0 (Windows NT 10.0; Win64; x64) AppleWebKit/537.36 (KHTML, like Gecko) Chrome/101.0.4951.54 Safari/537.36 Edg/101.0.1210.39",WebKit,Edge,101.0.1210.39,Windows,10.0,10,2,b,,1383,"<div style=""font-size:46px;"">2 - 1 = 3<br><br><br><br></div>",,1,,,
,html-keyboard-response,13,282854,0.0-2.0-0.0-2.3,19,1,2022-05-11 09:05:41,07e2e056772a877f89175bcd11545e20,,"Mozilla/5.0 (Windows NT 10.0; Win64; x64) AppleWebKit/537.36 (KHTML, like Gecko) Chrome/101.0.4951.54 Safari/537.36 Edg/101.0.1210.39",WebKit,Edge,101.0.1210.39,Windows,10.0,10,2,b,,null, ,null,,,,
,html-keyboard-response,14,283870,0.0-2.0-0.0-0.4,19,1,2022-05-11 09:05:41,07e2e056772a877f89175bcd11545e20,,"Mozilla/5.0 (Windows NT 10.0; Win64; x64) AppleWebKit/537.36 (KHTML, like Gecko) Chrome/101.0.4951.54 Safari/537.36 Edg/101.0.1210.39",WebKit,Edge,101.0.1210.39,Windows,10.0,10,2,b,,null,"<div style=""font-size:70px;"">R<br><br><br><br></div>",null,,,,
,html-button-operationspan,15,286244,0.0-2.0-0.0-1.4,19,1,2022-05-11 09:05:41,07e2e056772a877f89175bcd11545e20,,"Mozilla/5.0 (Windows NT 10.0; Win64; x64) AppleWebKit/537.36 (KHTML, like Gecko) Chrome/101.0.4951.54 Safari/537.36 Edg/101.0.1210.39",WebKit,Edge,101.0.1210.39,Windows,10.0,10,2,b,,2373,"<div style=""font-size:46px;"">3 - 1 = 2<br><br><br><br></div>",,1,,,
,html-keyboard-response,16,286248,0.0-2.0-0.0-2.4,19,1,2022-05-11 09:05:41,07e2e056772a877f89175bcd11545e20,,"Mozilla/5.0 (Windows NT 10.0; Win64; x64) AppleWebKit/537.36 (KHTML, like Gecko) Chrome/101.0.4951.54 Safari/537.36 Edg/101.0.1210.39",WebKit,Edge,101.0.1210.39,Windows,10.0,10,2,b,,null, ,null,,,,
,operation-span-recall,17,294852,0.0-2.0-1.0,19,1,2022-05-11 09:05:41,07e2e056772a877f89175bcd11545e20,,"Mozilla/5.0 (Windows NT 10.0; Win64; x64) AppleWebKit/537.36 (KHTML, like Gecko) Chrome/101.0.4951.54 Safari/537.36 Edg/101.0.1210.39",WebKit,Edge,101.0.1210.39,Windows,10.0,10,2,b,,8602,,,5,"F,S,V,H,R","F,S,V,H,R",5
,instructions,18,297317,0.0-2.0-2.0,19,1,2022-05-11 09:05:41,07e2e056772a877f89175bcd11545e20,,"Mozilla/5.0 (Windows NT 10.0; Win64; x64) AppleWebKit/537.36 (KHTML, like Gecko) Chrome/101.0.4951.54 Safari/537.36 Edg/101.0.1210.39",WebKit,Edge,101.0.1210.39,Windows,10.0,10,2,b,"[{""page_index"":0,""viewing_time"":2463}]",2464,,,,,,
,html-keyboard-response,19,298324,0.0-2.0-0.1-0.5,19,1,2022-05-11 09:05:41,07e2e056772a877f89175bcd11545e20,,"Mozilla/5.0 (Windows NT 10.0; Win64; x64) AppleWebKit/537.36 (KHTML, like Gecko) Chrome/101.0.4951.54 Safari/537.36 Edg/101.0.1210.39",WebKit,Edge,101.0.1210.39,Windows,10.0,10,2,b,,null,"<div style=""font-size:70px;"">V<br><br><br><br></div>",null,,,,
,html-button-operationspan,20,300387,0.0-2.0-0.1-1.5,19,1,2022-05-11 09:05:41,07e2e056772a877f89175bcd11545e20,,"Mozilla/5.0 (Windows NT 10.0; Win64; x64) AppleWebKit/537.36 (KHTML, like Gecko) Chrome/101.0.4951.54 Safari/537.36 Edg/101.0.1210.39",WebKit,Edge,101.0.1210.39,Windows,10.0,10,2,b,,2062,"<div style=""font-size:46px;"">9 + 7 = 16<br><br><br><br></div>",,1,,,
,html-keyboard-response,21,300390,0.0-2.0-0.1-2.5,19,1,2022-05-11 09:05:41,07e2e056772a877f89175bcd11545e20,,"Mozilla/5.0 (Windows NT 10.0; Win64; x64) AppleWebKit/537.36 (KHTML, like Gecko) Chrome/101.0.4951.54 Safari/537.36 Edg/101.0.1210.39",WebKit,Edge,101.0.1210.39,Windows,10.0,10,2,b,,null, ,null,,,,
,html-keyboard-response,22,301408,0.0-2.0-0.1-0.6,19,1,2022-05-11 09:05:41,07e2e056772a877f89175bcd11545e20,,"Mozilla/5.0 (Windows NT 10.0; Win64; x64) AppleWebKit/537.36 (KHTML, like Gecko) Chrome/101.0.4951.54 Safari/537.36 Edg/101.0.1210.39",WebKit,Edge,101.0.1210.39,Windows,10.0,10,2,b,,null,"<div style=""font-size:70px;"">K<br><br><br><br></div>",null,,,,
,html-button-operationspan,23,302852,0.0-2.0-0.1-1.6,19,1,2022-05-11 09:05:41,07e2e056772a877f89175bcd11545e20,,"Mozilla/5.0 (Windows NT 10.0; Win64; x64) AppleWebKit/537.36 (KHTML, like Gecko) Chrome/101.0.4951.54 Safari/537.36 Edg/101.0.1210.39",WebKit,Edge,101.0.1210.39,Windows,10.0,10,2,b,,1443,"<div style=""font-size:46px;"">2 + 8 = 12<br><br><br><br></div>",,1,,,
,html-keyboard-response,24,302854,0.0-2.0-0.1-2.6,19,1,2022-05-11 09:05:41,07e2e056772a877f89175bcd11545e20,,"Mozilla/5.0 (Windows NT 10.0; Win64; x64) AppleWebKit/537.36 (KHTML, like Gecko) Chrome/101.0.4951.54 Safari/537.36 Edg/101.0.1210.39",WebKit,Edge,101.0.1210.39,Windows,10.0,10,2,b,,null, ,null,,,,
,html-keyboard-response,25,303860,0.0-2.0-0.1-0.7,19,1,2022-05-11 09:05:41,07e2e056772a877f89175bcd11545e20,,"Mozilla/5.0 (Windows NT 10.0; Win64; x64) AppleWebKit/537.36 (KHTML, like Gecko) Chrome/101.0.4951.54 Safari/537.36 Edg/101.0.1210.39",WebKit,Edge,101.0.1210.39,Windows,10.0,10,2,b,,null,"<div style=""font-size:70px;"">L<br><br><br><br></div>",null,,,,
,html-button-operationspan,26,305052,0.0-2.0-0.1-1.7,19,1,2022-05-11 09:05:41,07e2e056772a877f89175bcd11545e20,,"Mozilla/5.0 (Windows NT 10.0; Win64; x64) AppleWebKit/537.36 (KHTML, like Gecko) Chrome/101.0.4951.54 Safari/537.36 Edg/101.0.1210.39",WebKit,Edge,101.0.1210.39,Windows,10.0,10,2,b,,1191,"<div style=""font-size:46px;"">10 + 7 = 17<br><br><br><br></div>",,1,,,
,html-keyboard-response,27,305054,0.0-2.0-0.1-2.7,19,1,2022-05-11 09:05:41,07e2e056772a877f89175bcd11545e20,,"Mozilla/5.0 (Windows NT 10.0; Win64; x64) AppleWebKit/537.36 (KHTML, like Gecko) Chrome/101.0.4951.54 Safari/537.36 Edg/101.0.1210.39",WebKit,Edge,101.0.1210.39,Windows,10.0,10,2,b,,null, ,null,,,,
,html-keyboard-response,28,306060,0.0-2.0-0.1-0.8,19,1,2022-05-11 09:05:41,07e2e056772a877f89175bcd11545e20,,"Mozilla/5.0 (Windows NT 10.0; Win64; x64) AppleWebKit/537.36 (KHTML, like Gecko) Chrome/101.0.4951.54 Safari/537.36 Edg/101.0.1210.39",WebKit,Edge,101.0.1210.39,Windows,10.0,10,2,b,,null,"<div style=""font-size:70px;"">J<br><br><br><br></div>",null,,,,
,html-button-operationspan,29,307596,0.0-2.0-0.1-1.8,19,1,2022-05-11 09:05:41,07e2e056772a877f89175bcd11545e20,,"Mozilla/5.0 (Windows NT 10.0; Win64; x64) AppleWebKit/537.36 (KHTML, like Gecko) Chrome/101.0.4951.54 Safari/537.36 Edg/101.0.1210.39",WebKit,Edge,101.0.1210.39,Windows,10.0,10,2,b,,1534,"<div style=""font-size:46px;"">4 - 1 = 3<br><br><br><br></div>",,1,,,
,html-keyboard-response,30,307598,0.0-2.0-0.1-2.8,19,1,2022-05-11 09:05:41,07e2e056772a877f89175bcd11545e20,,"Mozilla/5.0 (Windows NT 10.0; Win64; x64) AppleWebKit/537.36 (KHTML, like Gecko) Chrome/101.0.4951.54 Safari/537.36 Edg/101.0.1210.39",WebKit,Edge,101.0.1210.39,Windows,10.0,10,2,b,,null, ,null,,,,
,html-keyboard-response,31,308612,0.0-2.0-0.1-0.9,19,1,2022-05-11 09:05:41,07e2e056772a877f89175bcd11545e20,,"Mozilla/5.0 (Windows NT 10.0; Win64; x64) AppleWebKit/537.36 (KHTML, like Gecko) Chrome/101.0.4951.54 Safari/537.36 Edg/101.0.1210.39",WebKit,Edge,101.0.1210.39,Windows,10.0,10,2,b,,null,"<div style=""font-size:70px;"">S<br><br><br><br></div>",null,,,,
,html-button-operationspan,32,309725,0.0-2.0-0.1-1.9,19,1,2022-05-11 09:05:41,07e2e056772a877f89175bcd11545e20,,"Mozilla/5.0 (Windows NT 10.0; Win64; x64) AppleWebKit/537.36 (KHTML, like Gecko) Chrome/101.0.4951.54 Safari/537.36 Edg/101.0.1210.39",WebKit,Edge,101.0.1210.39,Windows,10.0,10,2,b,,1111,"<div style=""font-size:46px;"">2 - 1 = 2<br><br><br><br></div>",,1,,,
,html-keyboard-response,33,309728,0.0-2.0-0.1-2.9,19,1,2022-05-11 09:05:41,07e2e056772a877f89175bcd11545e20,,"Mozilla/5.0 (Windows NT 10.0; Win64; x64) AppleWebKit/537.36 (KHTML, like Gecko) Chrome/101.0.4951.54 Safari/537.36 Edg/101.0.1210.39",WebKit,Edge,101.0.1210.39,Windows,10.0,10,2,b,,null, ,null,,,,
,operation-span-recall,34,317252,0.0-2.0-1.1,19,1,2022-05-11 09:05:41,07e2e056772a877f89175bcd11545e20,,"Mozilla/5.0 (Windows NT 10.0; Win64; x64) AppleWebKit/537.36 (KHTML, like Gecko) Chrome/101.0.4951.54 Safari/537.36 Edg/101.0.1210.39",WebKit,Edge,101.0.1210.39,Windows,10.0,10,2,b,,7521,,,5,"V,K,L,J,S","V,K,L,J,S",5
,instructions,35,319669,0.0-2.0-2.1,19,1,2022-05-11 09:05:41,07e2e056772a877f89175bcd11545e20,,"Mozilla/5.0 (Windows NT 10.0; Win64; x64) AppleWebKit/537.36 (KHTML, like Gecko) Chrome/101.0.4951.54 Safari/537.36 Edg/101.0.1210.39",WebKit,Edge,101.0.1210.39,Windows,10.0,10,2,b,"[{""page_index"":0,""viewing_time"":2415}]",2416,,,,,,
,html-keyboard-response,36,320680,0.0-2.0-0.2-0.10,19,1,2022-05-11 09:05:41,07e2e056772a877f89175bcd11545e20,,"Mozilla/5.0 (Windows NT 10.0; Win64; x64) AppleWebKit/537.36 (KHTML, like Gecko) Chrome/101.0.4951.54 Safari/537.36 Edg/101.0.1210.39",WebKit,Edge,101.0.1210.39,Windows,10.0,10,2,b,,null,"<div style=""font-size:70px;"">H<br><br><br><br></div>",null,,,,
,html-button-operationspan,37,322172,0.0-2.0-0.2-1.10,19,1,2022-05-11 09:05:41,07e2e056772a877f89175bcd11545e20,,"Mozilla/5.0 (Windows NT 10.0; Win64; x64) AppleWebKit/537.36 (KHTML, like Gecko) Chrome/101.0.4951.54 Safari/537.36 Edg/101.0.1210.39",WebKit,Edge,101.0.1210.39,Windows,10.0,10,2,b,,1490,"<div style=""font-size:46px;"">9 + 6 = 13<br><br><br><br></div>",,1,,,
,html-keyboard-response,38,322176,0.0-2.0-0.2-2.10,19,1,2022-05-11 09:05:41,07e2e056772a877f89175bcd11545e20,,"Mozilla/5.0 (Windows NT 10.0; Win64; x64) AppleWebKit/537.36 (KHTML, like Gecko) Chrome/101.0.4951.54 Safari/537.36 Edg/101.0.1210.39",WebKit,Edge,101.0.1210.39,Windows,10.0,10,2,b,,null, ,null,,,,
,html-keyboard-response,39,323186,0.0-2.0-0.2-0.11,19,1,2022-05-11 09:05:41,07e2e056772a877f89175bcd11545e20,,"Mozilla/5.0 (Windows NT 10.0; Win64; x64) AppleWebKit/537.36 (KHTML, like Gecko) Chrome/101.0.4951.54 Safari/537.36 Edg/101.0.1210.39",WebKit,Edge,101.0.1210.39,Windows,10.0,10,2,b,,null,"<div style=""font-size:70px;"">P<br><br><br><br></div>",null,,,,
,html-button-operationspan,40,324372,0.0-2.0-0.2-1.11,19,1,2022-05-11 09:05:41,07e2e056772a877f89175bcd11545e20,,"Mozilla/5.0 (Windows NT 10.0; Win64; x64) AppleWebKit/537.36 (KHTML, like Gecko) Chrome/101.0.4951.54 Safari/537.36 Edg/101.0.1210.39",WebKit,Edge,101.0.1210.39,Windows,10.0,10,2,b,,1183,"<div style=""font-size:46px;"">6 - 2 = 3<br><br><br><br></div>",,1,,,
,html-keyboard-response,41,324374,0.0-2.0-0.2-2.11,19,1,2022-05-11 09:05:41,07e2e056772a877f89175bcd11545e20,,"Mozilla/5.0 (Windows NT 10.0; Win64; x64) AppleWebKit/537.36 (KHTML, like Gecko) Chrome/101.0.4951.54 Safari/537.36 Edg/101.0.1210.39",WebKit,Edge,101.0.1210.39,Windows,10.0,10,2,b,,null, ,null,,,,
,html-keyboard-response,42,325379,0.0-2.0-0.2-0.12,19,1,2022-05-11 09:05:41,07e2e056772a877f89175bcd11545e20,,"Mozilla/5.0 (Windows NT 10.0; Win64; x64) AppleWebKit/537.36 (KHTML, like Gecko) Chrome/101.0.4951.54 Safari/537.36 Edg/101.0.1210.39",WebKit,Edge,101.0.1210.39,Windows,10.0,10,2,b,,null,"<div style=""font-size:70px;"">R<br><br><br><br></div>",null,,,,
,html-button-operationspan,43,326900,0.0-2.0-0.2-1.12,19,1,2022-05-11 09:05:41,07e2e056772a877f89175bcd11545e20,,"Mozilla/5.0 (Windows NT 10.0; Win64; x64) AppleWebKit/537.36 (KHTML, like Gecko) Chrome/101.0.4951.54 Safari/537.36 Edg/101.0.1210.39",WebKit,Edge,101.0.1210.39,Windows,10.0,10,2,b,,1519,"<div style=""font-size:46px;"">5 - 4 = 2<br><br><br><br></div>",,1,,,
,html-keyboard-response,44,326903,0.0-2.0-0.2-2.12,19,1,2022-05-11 09:05:41,07e2e056772a877f89175bcd11545e20,,"Mozilla/5.0 (Windows NT 10.0; Win64; x64) AppleWebKit/537.36 (KHTML, like Gecko) Chrome/101.0.4951.54 Safari/537.36 Edg/101.0.1210.39",WebKit,Edge,101.0.1210.39,Windows,10.0,10,2,b,,null, ,null,,,,
,html-keyboard-response,45,327906,0.0-2.0-0.2-0.13,19,1,2022-05-11 09:05:41,07e2e056772a877f89175bcd11545e20,,"Mozilla/5.0 (Windows NT 10.0; Win64; x64) AppleWebKit/537.36 (KHTML, like Gecko) Chrome/101.0.4951.54 Safari/537.36 Edg/101.0.1210.39",WebKit,Edge,101.0.1210.39,Windows,10.0,10,2,b,,null,"<div style=""font-size:70px;"">F<br><br><br><br></div>",null,,,,
,html-button-operationspan,46,329109,0.0-2.0-0.2-1.13,19,1,2022-05-11 09:05:41,07e2e056772a877f89175bcd11545e20,,"Mozilla/5.0 (Windows NT 10.0; Win64; x64) AppleWebKit/537.36 (KHTML, like Gecko) Chrome/101.0.4951.54 Safari/537.36 Edg/101.0.1210.39",WebKit,Edge,101.0.1210.39,Windows,10.0,10,2,b,,1199,"<div style=""font-size:46px;"">4 - 1 = 3<br><br><br><br></div>",,1,,,
,html-keyboard-response,47,329112,0.0-2.0-0.2-2.13,19,1,2022-05-11 09:05:41,07e2e056772a877f89175bcd11545e20,,"Mozilla/5.0 (Windows NT 10.0; Win64; x64) AppleWebKit/537.36 (KHTML, like Gecko) Chrome/101.0.4951.54 Safari/537.36 Edg/101.0.1210.39",WebKit,Edge,101.0.1210.39,Windows,10.0,10,2,b,,null, ,null,,,,
,operation-span-recall,48,334852,0.0-2.0-1.2,19,1,2022-05-11 09:05:41,07e2e056772a877f89175bcd11545e20,,"Mozilla/5.0 (Windows NT 10.0; Win64; x64) AppleWebKit/537.36 (KHTML, like Gecko) Chrome/101.0.4951.54 Safari/537.36 Edg/101.0.1210.39",WebKit,Edge,101.0.1210.39,Windows,10.0,10,2,b,,5738,,,4,"H,P,R,F","H,P,R,F",4
,instructions,49,336108,0.0-2.0-2.2,19,1,2022-05-11 09:05:41,07e2e056772a877f89175bcd11545e20,,"Mozilla/5.0 (Windows NT 10.0; Win64; x64) AppleWebKit/537.36 (KHTML, like Gecko) Chrome/101.0.4951.54 Safari/537.36 Edg/101.0.1210.39",WebKit,Edge,101.0.1210.39,Windows,10.0,10,2,b,"[{""page_index"":0,""viewing_time"":1254}]",1254,,,,,,
,html-keyboard-response,50,337118,0.0-2.0-0.3-0.14,19,1,2022-05-11 09:05:41,07e2e056772a877f89175bcd11545e20,,"Mozilla/5.0 (Windows NT 10.0; Win64; x64) AppleWebKit/537.36 (KHTML, like Gecko) Chrome/101.0.4951.54 Safari/537.36 Edg/101.0.1210.39",WebKit,Edge,101.0.1210.39,Windows,10.0,10,2,b,,null,"<div style=""font-size:70px;"">J<br><br><br><br></div>",null,,,,
,html-button-operationspan,51,338230,0.0-2.0-0.3-1.14,19,1,2022-05-11 09:05:41,07e2e056772a877f89175bcd11545e20,,"Mozilla/5.0 (Windows NT 10.0; Win64; x64) AppleWebKit/537.36 (KHTML, like Gecko) Chrome/101.0.4951.54 Safari/537.36 Edg/101.0.1210.39",WebKit,Edge,101.0.1210.39,Windows,10.0,10,2,b,,1109,"<div style=""font-size:46px;"">9 - 2 = 7<br><br><br><br></div>",,1,,,
,html-keyboard-response,52,338233,0.0-2.0-0.3-2.14,19,1,2022-05-11 09:05:41,07e2e056772a877f89175bcd11545e20,,"Mozilla/5.0 (Windows NT 10.0; Win64; x64) AppleWebKit/537.36 (KHTML, like Gecko) Chrome/101.0.4951.54 Safari/537.36 Edg/101.0.1210.39",WebKit,Edge,101.0.1210.39,Windows,10.0,10,2,b,,null, ,null,,,,
,html-keyboard-response,53,339236,0.0-2.0-0.3-0.15,19,1,2022-05-11 09:05:41,07e2e056772a877f89175bcd11545e20,,"Mozilla/5.0 (Windows NT 10.0; Win64; x64) AppleWebKit/537.36 (KHTML, like Gecko) Chrome/101.0.4951.54 Safari/537.36 Edg/101.0.1210.39",WebKit,Edge,101.0.1210.39,Windows,10.0,10,2,b,,null,"<div style=""font-size:70px;"">T<br><br><br><br></div>",null,,,,
,html-button-operationspan,54,340332,0.0-2.0-0.3-1.15,19,1,2022-05-11 09:05:41,07e2e056772a877f89175bcd11545e20,,"Mozilla/5.0 (Windows NT 10.0; Win64; x64) AppleWebKit/537.36 (KHTML, like Gecko) Chrome/101.0.4951.54 Safari/537.36 Edg/101.0.1210.39",WebKit,Edge,101.0.1210.39,Windows,10.0,10,2,b,,1094,"<div style=""font-size:46px;"">2 - 1 = 1<br><br><br><br></div>",,1,,,
,html-keyboard-response,55,340335,0.0-2.0-0.3-2.15,19,1,2022-05-11 09:05:41,07e2e056772a877f89175bcd11545e20,,"Mozilla/5.0 (Windows NT 10.0; Win64; x64) AppleWebKit/537.36 (KHTML, like Gecko) Chrome/101.0.4951.54 Safari/537.36 Edg/101.0.1210.39",WebKit,Edge,101.0.1210.39,Windows,10.0,10,2,b,,null, ,null,,,,
,html-keyboard-response,56,341337,0.0-2.0-0.3-0.16,19,1,2022-05-11 09:05:41,07e2e056772a877f89175bcd11545e20,,"Mozilla/5.0 (Windows NT 10.0; Win64; x64) AppleWebKit/537.36 (KHTML, like Gecko) Chrome/101.0.4951.54 Safari/537.36 Edg/101.0.1210.39",WebKit,Edge,101.0.1210.39,Windows,10.0,10,2,b,,null,"<div style=""font-size:70px;"">S<br><br><br><br></div>",null,,,,
,html-button-operationspan,57,342612,0.0-2.0-0.3-1.16,19,1,2022-05-11 09:05:41,07e2e056772a877f89175bcd11545e20,,"Mozilla/5.0 (Windows NT 10.0; Win64; x64) AppleWebKit/537.36 (KHTML, like Gecko) Chrome/101.0.4951.54 Safari/537.36 Edg/101.0.1210.39",WebKit,Edge,101.0.1210.39,Windows,10.0,10,2,b,,1273,"<div style=""font-size:46px;"">5 + 8 = 13<br><br><br><br></div>",,1,,,
,html-keyboard-response,58,342616,0.0-2.0-0.3-2.16,19,1,2022-05-11 09:05:41,07e2e056772a877f89175bcd11545e20,,"Mozilla/5.0 (Windows NT 10.0; Win64; x64) AppleWebKit/537.36 (KHTML, like Gecko) Chrome/101.0.4951.54 Safari/537.36 Edg/101.0.1210.39",WebKit,Edge,101.0.1210.39,Windows,10.0,10,2,b,,null, ,null,,,,
,html-keyboard-response,59,343632,0.0-2.0-0.3-0.17,19,1,2022-05-11 09:05:41,07e2e056772a877f89175bcd11545e20,,"Mozilla/5.0 (Windows NT 10.0; Win64; x64) AppleWebKit/537.36 (KHTML, like Gecko) Chrome/101.0.4951.54 Safari/537.36 Edg/101.0.1210.39",WebKit,Edge,101.0.1210.39,Windows,10.0,10,2,b,,null,"<div style=""font-size:70px;"">F<br><br><br><br></div>",null,,,,
,html-button-operationspan,60,344980,0.0-2.0-0.3-1.17,19,1,2022-05-11 09:05:41,07e2e056772a877f89175bcd11545e20,,"Mozilla/5.0 (Windows NT 10.0; Win64; x64) AppleWebKit/537.36 (KHTML, like Gecko) Chrome/101.0.4951.54 Safari/537.36 Edg/101.0.1210.39",WebKit,Edge,101.0.1210.39,Windows,10.0,10,2,b,,1346,"<div style=""font-size:46px;"">2 + 9 = 13<br><br><br><br></div>",,1,,,
,html-keyboard-response,61,344983,0.0-2.0-0.3-2.17,19,1,2022-05-11 09:05:41,07e2e056772a877f89175bcd11545e20,,"Mozilla/5.0 (Windows NT 10.0; Win64; x64) AppleWebKit/537.36 (KHTML, like Gecko) Chrome/101.0.4951.54 Safari/537.36 Edg/101.0.1210.39",WebKit,Edge,101.0.1210.39,Windows,10.0,10,2,b,,null, ,null,,,,
,html-keyboard-response,62,346000,0.0-2.0-0.3-0.18,19,1,2022-05-11 09:05:41,07e2e056772a877f89175bcd11545e20,,"Mozilla/5.0 (Windows NT 10.0; Win64; x64) AppleWebKit/537.36 (KHTML, like Gecko) Chrome/101.0.4951.54 Safari/537.36 Edg/101.0.1210.39",WebKit,Edge,101.0.1210.39,Windows,10.0,10,2,b,,null,"<div style=""font-size:70px;"">N<br><br><br><br></div>",null,,,,
,html-button-operationspan,63,347140,0.0-2.0-0.3-1.18,19,1,2022-05-11 09:05:41,07e2e056772a877f89175bcd11545e20,,"Mozilla/5.0 (Windows NT 10.0; Win64; x64) AppleWebKit/537.36 (KHTML, like Gecko) Chrome/101.0.4951.54 Safari/537.36 Edg/101.0.1210.39",WebKit,Edge,101.0.1210.39,Windows,10.0,10,2,b,,1138,"<div style=""font-size:46px;"">3 + 9 = 12<br><br><br><br></div>",,1,,,
,html-keyboard-response,64,347145,0.0-2.0-0.3-2.18,19,1,2022-05-11 09:05:41,07e2e056772a877f89175bcd11545e20,,"Mozilla/5.0 (Windows NT 10.0; Win64; x64) AppleWebKit/537.36 (KHTML, like Gecko) Chrome/101.0.4951.54 Safari/537.36 Edg/101.0.1210.39",WebKit,Edge,101.0.1210.39,Windows,10.0,10,2,b,,null, ,null,,,,
,html-keyboard-response,65,348160,0.0-2.0-0.3-0.19,19,1,2022-05-11 09:05:41,07e2e056772a877f89175bcd11545e20,,"Mozilla/5.0 (Windows NT 10.0; Win64; x64) AppleWebKit/537.36 (KHTML, like Gecko) Chrome/101.0.4951.54 Safari/537.36 Edg/101.0.1210.39",WebKit,Edge,101.0.1210.39,Windows,10.0,10,2,b,,null,"<div style=""font-size:70px;"">H<br><br><br><br></div>",null,,,,
,html-button-operationspan,66,349164,0.0-2.0-0.3-1.19,19,1,2022-05-11 09:05:41,07e2e056772a877f89175bcd11545e20,,"Mozilla/5.0 (Windows NT 10.0; Win64; x64) AppleWebKit/537.36 (KHTML, like Gecko) Chrome/101.0.4951.54 Safari/537.36 Edg/101.0.1210.39",WebKit,Edge,101.0.1210.39,Windows,10.0,10,2,b,,1001,"<div style=""font-size:46px;"">9 + 9 = 19<br><br><br><br></div>",,1,,,
,html-keyboard-response,67,349167,0.0-2.0-0.3-2.19,19,1,2022-05-11 09:05:41,07e2e056772a877f89175bcd11545e20,,"Mozilla/5.0 (Windows NT 10.0; Win64; x64) AppleWebKit/537.36 (KHTML, like Gecko) Chrome/101.0.4951.54 Safari/537.36 Edg/101.0.1210.39",WebKit,Edge,101.0.1210.39,Windows,10.0,10,2,b,,null, ,null,,,,
,operation-span-recall,68,355916,0.0-2.0-1.3,19,1,2022-05-11 09:05:41,07e2e056772a877f89175bcd11545e20,,"Mozilla/5.0 (Windows NT 10.0; Win64; x64) AppleWebKit/537.36 (KHTML, like Gecko) Chrome/101.0.4951.54 Safari/537.36 Edg/101.0.1210.39",WebKit,Edge,101.0.1210.39,Windows,10.0,10,2,b,,6743,,,6,"J,T,S,F,N,H","J,T,S,F,N,H",6
,instructions,69,356732,0.0-2.0-2.3,19,1,2022-05-11 09:05:41,07e2e056772a877f89175bcd11545e20,,"Mozilla/5.0 (Windows NT 10.0; Win64; x64) AppleWebKit/537.36 (KHTML, like Gecko) Chrome/101.0.4951.54 Safari/537.36 Edg/101.0.1210.39",WebKit,Edge,101.0.1210.39,Windows,10.0,10,2,b,"[{""page_index"":0,""viewing_time"":814}]",815,,,,,,
,html-keyboard-response,70,357741,0.0-2.0-0.4-0.20,19,1,2022-05-11 09:05:41,07e2e056772a877f89175bcd11545e20,,"Mozilla/5.0 (Windows NT 10.0; Win64; x64) AppleWebKit/537.36 (KHTML, like Gecko) Chrome/101.0.4951.54 Safari/537.36 Edg/101.0.1210.39",WebKit,Edge,101.0.1210.39,Windows,10.0,10,2,b,,null,"<div style=""font-size:70px;"">T<br><br><br><br></div>",null,,,,
,html-button-operationspan,71,359148,0.0-2.0-0.4-1.20,19,1,2022-05-11 09:05:41,07e2e056772a877f89175bcd11545e20,,"Mozilla/5.0 (Windows NT 10.0; Win64; x64) AppleWebKit/537.36 (KHTML, like Gecko) Chrome/101.0.4951.54 Safari/537.36 Edg/101.0.1210.39",WebKit,Edge,101.0.1210.39,Windows,10.0,10,2,b,,1403,"<div style=""font-size:46px;"">3 - 1 = 4<br><br><br><br></div>",,1,,,
,html-keyboard-response,72,359152,0.0-2.0-0.4-2.20,19,1,2022-05-11 09:05:41,07e2e056772a877f89175bcd11545e20,,"Mozilla/5.0 (Windows NT 10.0; Win64; x64) AppleWebKit/537.36 (KHTML, like Gecko) Chrome/101.0.4951.54 Safari/537.36 Edg/101.0.1210.39",WebKit,Edge,101.0.1210.39,Windows,10.0,10,2,b,,null, ,null,,,,
,html-keyboard-response,73,360155,0.0-2.0-0.4-0.21,19,1,2022-05-11 09:05:41,07e2e056772a877f89175bcd11545e20,,"Mozilla/5.0 (Windows NT 10.0; Win64; x64) AppleWebKit/537.36 (KHTML, like Gecko) Chrome/101.0.4951.54 Safari/537.36 Edg/101.0.1210.39",WebKit,Edge,101.0.1210.39,Windows,10.0,10,2,b,,null,"<div style=""font-size:70px;"">Q<br><br><br><br></div>",null,,,,
,html-button-operationspan,74,361204,0.0-2.0-0.4-1.21,19,1,2022-05-11 09:05:41,07e2e056772a877f89175bcd11545e20,,"Mozilla/5.0 (Windows NT 10.0; Win64; x64) AppleWebKit/537.36 (KHTML, like Gecko) Chrome/101.0.4951.54 Safari/537.36 Edg/101.0.1210.39",WebKit,Edge,101.0.1210.39,Windows,10.0,10,2,b,,1046,"<div style=""font-size:46px;"">6 + 5 = 11<br><br><br><br></div>",,1,,,
,html-keyboard-response,75,361207,0.0-2.0-0.4-2.21,19,1,2022-05-11 09:05:41,07e2e056772a877f89175bcd11545e20,,"Mozilla/5.0 (Windows NT 10.0; Win64; x64) AppleWebKit/537.36 (KHTML, like Gecko) Chrome/101.0.4951.54 Safari/537.36 Edg/101.0.1210.39",WebKit,Edge,101.0.1210.39,Windows,10.0,10,2,b,,null, ,null,,,,
,html-keyboard-response,76,362219,0.0-2.0-0.4-0.22,19,1,2022-05-11 09:05:41,07e2e056772a877f89175bcd11545e20,,"Mozilla/5.0 (Windows NT 10.0; Win64; x64) AppleWebKit/537.36 (KHTML, like Gecko) Chrome/101.0.4951.54 Safari/537.36 Edg/101.0.1210.39",WebKit,Edge,101.0.1210.39,Windows,10.0,10,2,b,,null,"<div style=""font-size:70px;"">H<br><br><br><br></div>",null,,,,
